ax,ay,az
0.220,0.600,0.390
0.680,-0.300,-1.030
0.010,-1.070,-1.270
-0.010,-0.120,-1.180
-0.020,-0.480,-1.100
-1.330,0.140,1.470
0.020,-0.200,-0.720
-0.090,0.340,0.000
0.200,-0.060,-0.030
0.390,-0.030,-0.270
0.320,3.220,-1.250
-0.270,1.070,-1.150
2.620,0.530,0.990
0.020,-3.630,-1.470
1.660,-0.210,2.210
0.400,-1.800,1.110
-6.610,0.330,-2.170
-1.020,0.890,-0.680
-1.020,0.890,-0.680
-1.020,0.890,-0.680
1.170,2.340,-0.530
1.170,2.340,-0.530
1.170,2.340,-0.530
1.170,2.340,-0.530
4.100,0.510,5.820
4.100,0.510,5.820
4.100,0.510,5.820
4.100,0.510,5.820
5.220,-1.880,13.520
5.220,-1.880,13.520
5.220,-1.880,13.520
6.910,0.140,14.150
6.910,0.140,14.150
6.910,0.140,14.150
6.910,0.140,14.150
6.910,0.140,14.150
6.910,0.140,14.150
12.160,0.200,9.880
12.160,0.200,9.880
12.160,0.200,9.880
12.160,0.200,9.880
12.160,0.200,9.880
12.160,0.200,9.880
10.730,-2.040,10.940
10.730,-2.040,10.940
10.730,-2.040,10.940
10.730,-2.040,10.940
6.510,-1.450,9.130
6.510,-1.450,9.130
6.510,-1.450,9.130
,,,
0.680,-0.300,-1.030
0.010,-1.070,-1.270
-0.010,-0.120,-1.180
-0.020,-0.480,-1.100
-1.330,0.140,1.470
0.020,-0.200,-0.720
-0.090,0.340,0.000
0.200,-0.060,-0.030
0.390,-0.030,-0.270
0.320,3.220,-1.250
-0.270,1.070,-1.150
2.620,0.530,0.990
0.020,-3.630,-1.470
1.660,-0.210,2.210
0.400,-1.800,1.110
-6.610,0.330,-2.170
-1.170,-3.520,-4.500
7.380,-3.180,8.890
7.380,-3.180,8.890
7.380,-3.180,8.890
7.380,-3.180,8.890
6.070,-1.690,6.110
6.070,-1.690,6.110
6.070,-1.690,6.110
6.070,-1.690,6.110
6.070,-1.690,6.110
6.070,-1.690,6.110
6.310,-0.690,3.860
6.310,-0.690,3.860
6.310,-0.690,3.860
6.310,-0.690,3.860
6.310,-0.690,3.860
5.610,-2.020,1.660
5.610,-2.020,1.660
5.610,-2.020,1.660
5.610,-2.020,1.660
3.070,-0.500,3.180
3.070,-0.500,3.180
3.070,-0.500,3.180
3.070,-0.500,3.180
1.140,-0.190,4.160
1.140,-0.190,4.160
1.140,-0.190,4.160
1.140,-0.190,4.160
0.550,-0.200,3.650
0.550,-0.200,3.650
0.550,-0.200,3.650
0.550,-0.200,3.650
0.550,-0.200,3.650
-0.110,-0.290,3.270
,,,
-0.010,-0.120,-1.180
-0.020,-0.480,-1.100
-1.330,0.140,1.470
0.020,-0.200,-0.720
-0.090,0.340,0.000
0.200,-0.060,-0.030
0.390,-0.030,-0.270
0.320,3.220,-1.250
-0.270,1.070,-1.150
2.620,0.530,0.990
0.020,-3.630,-1.470
1.660,-0.210,2.210
0.400,-1.800,1.110
-6.610,0.330,-2.170
-1.170,-3.520,-4.500
0.860,0.110,3.350
-6.530,-1.420,-7.830
-0.180,-1.810,-1.440
-0.180,-1.810,-1.440
-0.180,-1.810,-1.440
-0.180,-1.810,-1.440
0.510,-1.770,-2.100
0.510,-1.770,-2.100
0.510,-1.770,-2.100
0.510,-1.770,-2.100
0.140,-2.070,-2.310
0.140,-2.070,-2.310
0.140,-2.070,-2.310
0.140,-2.070,-2.310
0.730,2.700,2.030
0.730,2.700,2.030
0.730,2.700,2.030
0.730,2.700,2.030
3.930,1.880,1.620
3.930,1.880,1.620
3.930,1.880,1.620
3.930,1.880,1.620
3.930,1.880,1.620
4.630,-1.040,2.820
4.630,-1.040,2.820
4.630,-1.040,2.820
4.630,-1.040,2.820
4.630,-1.040,2.820
7.310,-1.990,16.580
7.310,-1.990,16.580
7.310,-1.990,16.580
7.310,-1.990,16.580
7.310,-1.990,16.580
10.540,-0.220,13.850
10.540,-0.220,13.850
,,,
-0.020,-0.480,-1.100
-1.330,0.140,1.470
0.020,-0.200,-0.720
-0.090,0.340,0.000
0.200,-0.060,-0.030
0.390,-0.030,-0.270
0.320,3.220,-1.250
-0.270,1.070,-1.150
2.620,0.530,0.990
0.020,-3.630,-1.470
1.660,-0.210,2.210
0.400,-1.800,1.110
-6.610,0.330,-2.170
-1.170,-3.520,-4.500
0.860,0.110,3.350
-6.530,-1.420,-7.830
11.030,-1.860,7.600
0.610,1.180,2.950
0.610,1.180,2.950
1.210,0.580,2.800
1.210,0.580,2.800
1.210,0.580,2.800
1.210,0.580,2.800
-0.180,1.170,0.140
-0.180,1.170,0.140
-0.180,1.170,0.140
-0.180,1.170,0.140
-0.180,1.170,0.140
-1.230,2.320,0.530
-1.230,2.320,0.530
-1.230,2.320,0.530
-1.230,2.320,0.530
-1.230,2.320,0.530
-1.230,2.320,0.530
-0.570,1.030,-2.530
-0.570,1.030,-2.530
-0.570,1.030,-2.530
-0.570,1.030,-2.530
-1.630,-0.920,-3.080
-1.630,-0.920,-3.080
-1.630,-0.920,-3.080
-1.630,-0.920,-3.080
-2.990,-2.340,-5.430
-2.990,-2.340,-5.430
-2.990,-2.340,-5.430
-2.990,-2.340,-5.430
-2.840,-2.070,-7.940
-2.840,-2.070,-7.940
-2.840,-2.070,-7.940
-2.840,-2.070,-7.940
,,,
-1.330,0.140,1.470
0.020,-0.200,-0.720
-0.090,0.340,0.000
0.200,-0.060,-0.030
0.390,-0.030,-0.270
0.320,3.220,-1.250
-0.270,1.070,-1.150
2.620,0.530,0.990
0.020,-3.630,-1.470
1.660,-0.210,2.210
0.400,-1.800,1.110
-6.610,0.330,-2.170
-1.170,-3.520,-4.500
0.860,0.110,3.350
-6.530,-1.420,-7.830
11.030,-1.860,7.600
-7.030,-1.710,-4.950
4.090,1.520,6.360
4.880,-0.160,10.250
4.880,-0.160,10.250
4.880,-0.160,10.250
4.880,-0.160,10.250
4.880,-0.160,10.250
4.880,-0.160,10.250
7.350,-0.600,13.310
7.350,-0.600,13.310
7.350,-0.600,13.310
7.350,-0.600,13.310
3.490,-0.990,9.920
3.490,-0.990,9.920
3.490,-0.990,9.920
3.490,-0.990,9.920
2.610,2.160,5.150
2.610,2.160,5.150
2.610,2.160,5.150
4.510,0.000,1.560
4.510,0.000,1.560
4.510,0.000,1.560
4.510,0.000,1.560
4.510,0.000,1.560
4.510,0.000,1.560
4.530,0.430,2.250
4.530,0.430,2.250
4.530,0.430,2.250
4.530,0.430,2.250
4.530,0.430,2.250
2.860,0.380,4.450
2.860,0.380,4.450
2.860,0.380,4.450
2.860,0.380,4.450
,,,
0.020,-0.200,-0.720
-0.090,0.340,0.000
0.200,-0.060,-0.030
0.390,-0.030,-0.270
0.320,3.220,-1.250
-0.270,1.070,-1.150
2.620,0.530,0.990
0.020,-3.630,-1.470
1.660,-0.210,2.210
0.400,-1.800,1.110
-6.610,0.330,-2.170
-1.170,-3.520,-4.500
0.860,0.110,3.350
-6.530,-1.420,-7.830
11.030,-1.860,7.600
-7.030,-1.710,-4.950
-6.370,-1.160,-3.140
1.310,-3.110,-2.270
1.310,-3.110,-2.270
1.310,-3.110,-2.270
1.310,-3.110,-2.270
1.470,-2.470,-0.810
1.470,-2.470,-0.810
1.470,-2.470,-0.810
1.470,-2.470,-0.810
-0.010,-2.670,1.400
-0.010,-2.670,1.400
-0.010,-2.670,1.400
-0.010,-2.670,1.400
-0.010,-2.670,1.400
0.250,-0.210,2.650
0.250,-0.210,2.650
0.250,-0.210,2.650
0.250,-0.210,2.650
0.250,-0.210,2.650
0.250,-0.210,2.650
3.660,1.780,1.820
3.660,1.780,1.820
3.660,1.780,1.820
3.660,1.780,1.820
3.600,0.080,3.830
3.600,0.080,3.830
3.600,0.080,3.830
3.600,0.080,3.830
4.490,-0.120,6.970
4.490,-0.120,6.970
4.490,-0.120,6.970
6.800,-1.060,12.770
6.800,-1.060,12.770
6.800,-1.060,12.770
,,,
0.200,-0.060,-0.030
0.390,-0.030,-0.270
0.320,3.220,-1.250
-0.270,1.070,-1.150
2.620,0.530,0.990
0.020,-3.630,-1.470
1.660,-0.210,2.210
0.400,-1.800,1.110
-6.610,0.330,-2.170
-1.170,-3.520,-4.500
0.860,0.110,3.350
-6.530,-1.420,-7.830
11.030,-1.860,7.600
-7.030,-1.710,-4.950
-6.370,-1.160,-3.140
3.210,1.600,3.890
-5.800,-1.000,-7.220
2.430,-2.970,-2.760
2.430,-2.970,-2.760
2.430,-2.970,-2.760
3.230,-2.750,-2.800
3.230,-2.750,-2.800
3.230,-2.750,-2.800
3.230,-2.750,-2.800
3.230,-2.750,-2.800
1.360,-3.470,-0.650
1.360,-3.470,-0.650
1.360,-3.470,-0.650
1.360,-3.470,-0.650
2.840,1.450,3.680
2.840,1.450,3.680
2.840,1.450,3.680
2.840,1.450,3.680
3.580,2.830,3.340
3.580,2.830,3.340
3.580,2.830,3.340
3.580,2.830,3.340
3.290,0.340,4.930
3.290,0.340,4.930
3.290,0.340,4.930
3.290,0.340,4.930
3.290,0.340,4.930
5.540,-1.520,15.440
5.540,-1.520,15.440
5.540,-1.520,15.440
5.540,-1.520,15.440
5.540,-1.520,15.440
5.540,-1.520,15.440
6.420,-0.080,14.880
6.420,-0.080,14.880
,,,
0.320,3.220,-1.250
-0.270,1.070,-1.150
2.620,0.530,0.990
0.020,-3.630,-1.470
1.660,-0.210,2.210
0.400,-1.800,1.110
-6.610,0.330,-2.170
-1.170,-3.520,-4.500
0.860,0.110,3.350
-6.530,-1.420,-7.830
11.030,-1.860,7.600
-7.030,-1.710,-4.950
-6.370,-1.160,-3.140
3.210,1.600,3.890
-5.800,-1.000,-7.220
0.990,0.330,4.490
-6.580,-1.200,-6.680
2.270,-3.150,0.160
3.140,-2.000,0.230
3.140,-2.000,0.230
3.140,-2.000,0.230
2.170,-1.390,1.500
2.170,-1.390,1.500
2.170,-1.390,1.500
2.170,-1.390,1.500
1.290,2.180,4.170
1.290,2.180,4.170
1.290,2.180,4.170
1.290,2.180,4.170
1.290,2.180,4.170
1.290,2.180,4.170
4.100,3.300,2.840
4.100,3.300,2.840
4.100,3.300,2.840
4.100,3.300,2.840
4.100,3.300,2.840
4.080,0.630,3.090
4.080,0.630,3.090
4.080,0.630,3.090
4.080,0.630,3.090
4.080,0.630,3.090
6.070,0.810,7.830
6.070,0.810,7.830
6.070,0.810,7.830
6.790,-1.160,10.920
6.790,-1.160,10.920
6.790,-1.160,10.920
6.790,-1.160,10.920
7.150,-2.280,11.970
7.150,-2.280,11.970
,,,
0.020,-3.630,-1.470
1.660,-0.210,2.210
0.400,-1.800,1.110
-6.610,0.330,-2.170
-1.170,-3.520,-4.500
0.860,0.110,3.350
-6.530,-1.420,-7.830
11.030,-1.860,7.600
-7.030,-1.710,-4.950
-6.370,-1.160,-3.140
3.210,1.600,3.890
-5.800,-1.000,-7.220
0.990,0.330,4.490
-6.580,-1.200,-6.680
3.420,-0.340,2.360
1.400,-0.300,3.920
-5.770,0.400,-9.170
1.690,-1.120,3.150
1.690,-1.120,3.150
1.690,-1.120,3.150
3.370,1.620,5.470
3.370,1.620,5.470
3.370,1.620,5.470
3.370,1.620,5.470
3.370,1.620,5.470
4.410,3.070,5.300
4.410,3.070,5.300
4.410,3.070,5.300
4.410,3.070,5.300
4.560,1.600,6.760
4.560,1.600,6.760
4.560,1.600,6.760
4.560,1.600,6.760
6.000,-0.620,10.640
6.000,-0.620,10.640
6.000,-0.620,10.640
5.280,-2.400,10.990
5.280,-2.400,10.990
5.280,-2.400,10.990
5.280,-2.400,10.990
5.280,-2.400,10.990
5.280,-2.400,10.990
2.140,-1.220,7.830
2.140,-1.220,7.830
2.140,-1.220,7.830
2.140,-1.220,7.830
2.140,-1.220,7.830
2.140,-1.220,7.830
3.360,0.750,4.570
3.360,0.750,4.570
,,,
0.400,-1.800,1.110
-6.610,0.330,-2.170
-1.170,-3.520,-4.500
0.860,0.110,3.350
-6.530,-1.420,-7.830
11.030,-1.860,7.600
-7.030,-1.710,-4.950
-6.370,-1.160,-3.140
3.210,1.600,3.890
-5.800,-1.000,-7.220
0.990,0.330,4.490
-6.580,-1.200,-6.680
3.420,-0.340,2.360
1.400,-0.300,3.920
-5.770,0.400,-9.170
0.820,0.860,3.720
-5.680,0.370,-7.660
1.400,-1.730,0.870
1.400,-1.730,0.870
1.400,-1.730,0.870
1.400,-1.730,0.870
1.670,0.400,2.500
1.670,0.400,2.500
1.670,0.400,2.500
1.670,0.400,2.500
2.420,0.970,3.170
2.420,0.970,3.170
2.420,0.970,3.170
2.420,0.970,3.170
2.420,0.970,3.170
5.200,1.760,2.910
5.200,1.760,2.910
5.200,1.760,2.910
5.200,1.760,2.910
5.200,1.760,2.910
5.200,1.760,2.910
4.440,-0.300,4.150
4.440,-0.300,4.150
4.440,-0.300,4.150
4.440,-0.300,4.150
4.780,-0.250,6.260
4.780,-0.250,6.260
4.780,-0.250,6.260
4.780,-0.250,6.260
4.000,-2.790,9.320
4.000,-2.790,9.320
4.000,-2.790,9.320
4.000,-2.790,9.320
2.030,-0.690,6.240
2.030,-0.690,6.240
,,,
-6.530,-1.420,-7.830
11.030,-1.860,7.600
-7.030,-1.710,-4.950
-6.370,-1.160,-3.140
3.210,1.600,3.890
-5.800,-1.000,-7.220
0.990,0.330,4.490
-6.580,-1.200,-6.680
3.420,-0.340,2.360
1.400,-0.300,3.920
-5.770,0.400,-9.170
0.820,0.860,3.720
-5.680,0.370,-7.660
1.030,0.620,2.350
-1.820,-0.820,-3.470
-0.300,-1.510,-2.640
3.770,-2.100,3.180
1.330,-0.300,3.790
0.860,-0.460,3.600
0.860,-0.460,3.600
0.860,-0.460,3.600
0.860,-0.460,3.600
0.860,-0.460,3.600
0.860,-0.460,3.600
-0.480,-1.140,2.010
-0.480,-1.140,2.010
-0.480,-1.140,2.010
-0.480,-1.140,2.010
-1.420,-0.110,2.050
-1.420,-0.110,2.050
-1.420,-0.110,2.050
-1.030,0.090,1.270
-1.030,0.090,1.270
-1.030,0.090,1.270
-1.030,0.090,1.270
-1.910,-0.170,-1.680
-1.910,-0.170,-1.680
-1.910,-0.170,-1.680
-1.910,-0.170,-1.680
-1.910,-0.170,-1.680
-1.910,-0.170,-1.680
-4.180,-0.970,-2.020
-4.180,-0.970,-2.020
-4.180,-0.970,-2.020
-4.180,-0.970,-2.020
-4.180,-0.970,-2.020
-4.860,-1.190,-4.360
-4.860,-1.190,-4.360
-4.860,-1.190,-4.360
-4.860,-1.190,-4.360
,,,
11.030,-1.860,7.600
-7.030,-1.710,-4.950
-6.370,-1.160,-3.140
3.210,1.600,3.890
-5.800,-1.000,-7.220
0.990,0.330,4.490
-6.580,-1.200,-6.680
3.420,-0.340,2.360
1.400,-0.300,3.920
-5.770,0.400,-9.170
0.820,0.860,3.720
-5.680,0.370,-7.660
1.030,0.620,2.350
-1.820,-0.820,-3.470
-0.300,-1.510,-2.640
3.770,-2.100,3.180
-3.290,-1.170,-7.050
7.620,-0.690,14.110
7.620,-0.690,14.110
7.620,-0.690,14.110
7.620,-0.690,14.110
4.970,-2.020,8.320
4.970,-2.020,8.320
4.970,-2.020,8.320
4.970,-2.020,8.320
5.150,1.250,4.660
5.150,1.250,4.660
5.150,1.250,4.660
5.150,1.250,4.660
5.150,1.250,4.660
5.580,1.710,2.500
5.580,1.710,2.500
5.580,1.710,2.500
5.580,1.710,2.500
5.580,1.710,2.500
5.580,1.710,2.500
4.680,-1.360,1.410
4.680,-1.360,1.410
4.680,-1.360,1.410
4.680,-1.360,1.410
4.660,1.280,2.470
4.660,1.280,2.470
4.660,1.280,2.470
4.660,1.280,2.470
2.410,0.920,3.880
2.410,0.920,3.880
2.410,0.920,3.880
2.410,0.920,3.880
0.860,0.600,3.490
0.860,0.600,3.490
,,,
-6.370,-1.160,-3.140
3.210,1.600,3.890
-5.800,-1.000,-7.220
0.990,0.330,4.490
-6.580,-1.200,-6.680
3.420,-0.340,2.360
1.400,-0.300,3.920
-5.770,0.400,-9.170
0.820,0.860,3.720
-5.680,0.370,-7.660
1.030,0.620,2.350
-1.820,-0.820,-3.470
-0.300,-1.510,-2.640
3.770,-2.100,3.180
-3.290,-1.170,-7.050
1.010,0.240,3.500
-5.380,-0.420,-7.110
0.610,-1.940,-1.800
0.610,-1.940,-1.800
0.610,-1.940,-1.800
0.300,-1.320,-1.110
0.300,-1.320,-1.110
0.300,-1.320,-1.110
0.300,-1.320,-1.110
0.300,-1.320,-1.110
1.020,-0.960,-0.630
1.020,-0.960,-0.630
1.020,-0.960,-0.630
1.020,-0.960,-0.630
1.840,0.240,1.050
1.840,0.240,1.050
1.840,0.240,1.050
1.840,0.240,1.050
2.670,0.280,1.480
2.670,0.280,1.480
2.670,0.280,1.480
2.670,0.280,1.480
3.180,-0.240,2.090
3.180,-0.240,2.090
3.180,-0.240,2.090
3.180,-0.240,2.090
3.180,-0.240,2.090
3.800,1.200,2.160
3.800,1.200,2.160
3.800,1.200,2.160
3.800,1.200,2.160
3.800,1.200,2.160
3.800,1.200,2.160
4.330,0.290,5.900
4.330,0.290,5.900
,,,
3.210,1.600,3.890
-5.800,-1.000,-7.220
0.990,0.330,4.490
-6.580,-1.200,-6.680
3.420,-0.340,2.360
1.400,-0.300,3.920
-5.770,0.400,-9.170
0.820,0.860,3.720
-5.680,0.370,-7.660
1.030,0.620,2.350
-1.820,-0.820,-3.470
-0.300,-1.510,-2.640
3.770,-2.100,3.180
-3.290,-1.170,-7.050
1.010,0.240,3.500
-5.380,-0.420,-7.110
4.880,-1.060,9.750
-0.190,1.480,0.960
-0.190,1.480,0.960
-0.860,1.210,0.000
-0.860,1.210,0.000
-0.860,1.210,0.000
-0.860,1.210,0.000
-1.730,0.840,-0.720
-1.730,0.840,-0.720
-1.730,0.840,-0.720
-4.390,0.190,-2.280
-4.390,0.190,-2.280
-4.390,0.190,-2.280
-4.390,0.190,-2.280
-4.390,0.190,-2.280
-4.390,0.190,-2.280
-4.240,-0.860,-4.430
-4.240,-0.860,-4.430
-4.240,-0.860,-4.430
-4.240,-0.860,-4.430
-4.240,-0.860,-4.430
-4.240,-0.860,-4.430
-4.680,-1.110,-6.500
-4.680,-1.110,-6.500
-4.680,-1.110,-6.500
-5.810,-1.540,-9.300
-5.810,-1.540,-9.300
-5.810,-1.540,-9.300
-5.810,-1.540,-9.300
-5.280,-1.010,-9.800
-5.280,-1.010,-9.800
-5.280,-1.010,-9.800
-5.280,-1.010,-9.800
-3.110,-1.020,-8.600
,,,
0.990,0.330,4.490
-6.580,-1.200,-6.680
3.420,-0.340,2.360
1.400,-0.300,3.920
-5.770,0.400,-9.170
0.820,0.860,3.720
-5.680,0.370,-7.660
1.030,0.620,2.350
-1.820,-0.820,-3.470
-0.300,-1.510,-2.640
3.770,-2.100,3.180
-3.290,-1.170,-7.050
1.010,0.240,3.500
-5.380,-0.420,-7.110
4.880,-1.060,9.750
-1.500,-0.930,-2.310
4.680,-0.460,5.200
-0.880,-1.210,0.410
-0.880,-1.210,0.410
-0.880,-1.210,0.410
-0.880,-1.210,0.410
-0.780,0.850,-0.960
-0.780,0.850,-0.960
-0.780,0.850,-0.960
-0.780,0.850,-0.960
-0.780,0.850,-0.960
-1.560,0.940,-1.090
-1.560,0.940,-1.090
-1.560,0.940,-1.090
-1.560,0.940,-1.090
-1.560,0.940,-1.090
-2.010,1.570,-0.980
-2.010,1.570,-0.980
-2.010,1.570,-0.980
-2.460,1.310,-1.390
-2.460,1.310,-1.390
-2.460,1.310,-1.390
-2.460,1.310,-1.390
-2.020,0.710,-1.750
-2.020,0.710,-1.750
-2.020,0.710,-1.750
-2.020,0.710,-1.750
-2.020,0.710,-1.750
-2.020,0.710,-1.750
-1.540,0.080,-2.220
-1.540,0.080,-2.220
-1.540,0.080,-2.220
-1.540,0.080,-2.220
-1.540,0.080,-2.220
-0.980,-0.340,-2.630
,,,
0.010,-0.140,0.050
0.080,-0.170,-0.100
0.150,-0.090,-0.050
0.020,0.190,0.090
0.330,-0.120,-0.280
0.090,0.020,-0.030
0.090,-0.150,-0.090
0.160,-0.140,0.030
0.140,-0.030,0.000
0.080,0.120,-0.060
0.000,0.100,-0.230
0.490,-0.380,-0.090
0.440,-0.120,-0.060
-0.350,0.890,-0.110
1.090,0.650,0.040
1.190,0.860,3.010
-4.210,-1.420,-6.460
-2.460,-0.510,-3.680
-2.460,-0.510,-3.680
-2.500,0.410,-4.080
-2.500,0.410,-4.080
-2.500,0.410,-4.080
-2.500,0.410,-4.080
-2.500,0.410,-4.080
-2.500,0.410,-4.080
-3.210,0.980,-4.930
-3.210,0.980,-4.930
-3.210,0.980,-4.930
-3.210,0.980,-4.930
-3.860,1.480,-4.980
-3.860,1.480,-4.980
-3.860,1.480,-4.980
-3.860,1.480,-4.980
-1.880,0.170,-4.240
-1.880,0.170,-4.240
-1.880,0.170,-4.240
0.420,-2.870,-0.400
0.420,-2.870,-0.400
0.420,-2.870,-0.400
0.420,-2.870,-0.400
0.420,-2.870,-0.400
0.420,-2.870,-0.400
-0.430,-2.640,1.270
-0.430,-2.640,1.270
-0.430,-2.640,1.270
-0.430,-2.640,1.270
-0.430,-2.640,1.270
3.100,-1.400,1.660
3.100,-1.400,1.660
3.100,-1.400,1.660
,,,
1.090,0.650,0.040
1.190,0.860,3.010
-4.210,-1.420,-6.460
-0.600,1.050,2.790
-1.770,0.210,-0.250
-2.040,-0.590,-1.870
1.310,-1.100,-0.020
-0.040,0.620,1.100
1.350,-0.310,0.940
-0.190,0.270,1.850
0.520,-0.140,2.590
-0.580,-0.440,-3.370
0.640,-1.430,-0.090
1.370,-0.540,0.070
-1.200,1.340,-0.960
-1.350,-1.620,-5.530
2.010,-2.530,6.750
1.550,-0.310,5.270
1.550,-0.310,5.270
1.550,-0.310,5.270
1.890,-0.440,4.800
1.890,-0.440,4.800
1.890,-0.440,4.800
1.890,-0.440,4.800
1.890,-0.440,4.800
3.080,1.750,3.830
3.080,1.750,3.830
3.080,1.750,3.830
3.080,1.750,3.830
3.080,1.750,3.830
2.110,-0.170,1.430
2.110,-0.170,1.430
2.110,-0.170,1.430
0.160,0.770,1.250
0.160,0.770,1.250
0.160,0.770,1.250
0.160,0.770,1.250
-2.160,2.270,1.070
-2.160,2.270,1.070
-2.160,2.270,1.070
-2.160,2.270,1.070
-2.160,2.270,1.070
-2.160,2.270,1.070
-4.490,-1.420,-2.830
-4.490,-1.420,-2.830
-4.490,-1.420,-2.830
-4.490,-1.420,-2.830
-4.490,-1.420,-2.830
-4.850,-2.640,-6.300
-4.850,-2.640,-6.300
,,,
1.370,-0.540,0.070
-1.200,1.340,-0.960
-1.350,-1.620,-5.530
2.010,-2.530,6.750
-1.760,0.230,-2.760
-0.990,0.480,-0.240
-2.140,0.950,-2.780
0.340,-1.250,-1.680
1.810,-0.930,3.160
1.470,0.790,0.530
0.460,-1.390,-3.080
-2.010,-1.970,-2.430
-3.030,-0.760,-4.130
1.810,0.900,3.080
1.140,-0.880,4.000
-3.000,-0.970,-2.290
-1.250,-2.430,-6.880
4.240,-3.770,7.780
4.240,-3.770,7.780
4.240,-3.770,7.780
4.240,-3.770,7.780
4.830,-3.670,11.790
4.830,-3.670,11.790
4.830,-3.670,11.790
4.830,-3.670,11.790
4.830,-3.670,11.790
4.830,-3.670,11.790
6.340,-2.890,11.250
6.340,-2.890,11.250
6.340,-2.890,11.250
6.340,-2.890,11.250
8.740,-4.130,9.530
8.740,-4.130,9.530
8.740,-4.130,9.530
8.740,-4.130,9.530
5.370,-3.000,7.410
5.370,-3.000,7.410
5.370,-3.000,7.410
5.370,-3.000,7.410
6.570,-1.320,5.190
6.570,-1.320,5.190
6.570,-1.320,5.190
6.570,-1.320,5.190
6.570,-1.320,5.190
6.190,-3.920,2.490
6.190,-3.920,2.490
6.190,-3.920,2.490
6.190,-3.920,2.490
6.190,-3.920,2.490
6.190,-3.920,2.490
,,,
-1.200,1.340,-0.960
-1.350,-1.620,-5.530
2.010,-2.530,6.750
-1.760,0.230,-2.760
-0.990,0.480,-0.240
-2.140,0.950,-2.780
0.340,-1.250,-1.680
1.810,-0.930,3.160
1.470,0.790,0.530
0.460,-1.390,-3.080
-2.010,-1.970,-2.430
-3.030,-0.760,-4.130
1.810,0.900,3.080
1.140,-0.880,4.000
-3.000,-0.970,-2.290
-1.250,-2.430,-6.880
6.180,1.140,6.470
0.150,0.830,2.790
0.150,0.830,2.790
0.150,0.830,2.790
0.150,0.830,2.790
-0.260,0.820,1.750
-0.260,0.820,1.750
-0.260,0.820,1.750
-0.260,0.820,1.750
-2.190,-2.560,0.300
-2.190,-2.560,0.300
-2.190,-2.560,0.300
-3.700,-2.350,0.150
-3.700,-2.350,0.150
-3.700,-2.350,0.150
-3.700,-2.350,0.150
-3.700,-2.350,0.150
-3.700,-2.350,0.150
-3.050,0.330,-1.610
-3.050,0.330,-1.610
-3.050,0.330,-1.610
-3.050,0.330,-1.610
-3.050,0.330,-1.610
-5.950,0.720,-5.410
-5.950,0.720,-5.410
-5.950,0.720,-5.410
-5.950,0.720,-5.410
-5.950,0.720,-5.410
-7.080,0.340,-6.140
-7.080,0.340,-6.140
-7.080,0.340,-6.140
-7.650,0.580,-7.100
-7.650,0.580,-7.100
-7.650,0.580,-7.100
,,,
-1.350,-1.620,-5.530
2.010,-2.530,6.750
-1.760,0.230,-2.760
-0.990,0.480,-0.240
-2.140,0.950,-2.780
0.340,-1.250,-1.680
1.810,-0.930,3.160
1.470,0.790,0.530
0.460,-1.390,-3.080
-2.010,-1.970,-2.430
-3.030,-0.760,-4.130
1.810,0.900,3.080
1.140,-0.880,4.000
-3.000,-0.970,-2.290
-1.250,-2.430,-6.880
6.180,1.140,6.470
-1.900,-2.900,-7.800
-0.700,-1.300,-0.280
-0.700,-1.300,-0.280
1.160,-1.260,-0.960
1.160,-1.260,-0.960
1.160,-1.260,-0.960
1.160,-1.260,-0.960
1.160,-1.260,-0.960
1.160,-1.260,-0.960
1.230,-0.260,-0.450
1.230,-0.260,-0.450
1.230,-0.260,-0.450
1.230,-0.260,-0.450
1.230,-0.260,-0.450
0.840,1.990,0.510
0.840,1.990,0.510
0.840,1.990,0.510
0.840,1.990,0.510
1.320,3.180,1.660
1.320,3.180,1.660
1.320,3.180,1.660
1.320,3.180,1.660
3.130,3.570,2.400
3.130,3.570,2.400
3.130,3.570,2.400
3.620,1.840,3.270
3.620,1.840,3.270
3.620,1.840,3.270
3.620,1.840,3.270
3.620,1.840,3.270
3.620,1.840,3.270
4.950,0.220,5.690
4.950,0.220,5.690
4.950,0.220,5.690
,,,
2.010,-2.530,6.750
-1.760,0.230,-2.760
-0.990,0.480,-0.240
-2.140,0.950,-2.780
0.340,-1.250,-1.680
1.810,-0.930,3.160
1.470,0.790,0.530
0.460,-1.390,-3.080
-2.010,-1.970,-2.430
-3.030,-0.760,-4.130
1.810,0.900,3.080
1.140,-0.880,4.000
-3.000,-0.970,-2.290
-1.250,-2.430,-6.880
6.180,1.140,6.470
-1.900,-2.900,-7.800
4.870,1.660,4.620
2.300,-0.190,2.460
2.300,-0.190,2.460
2.300,-0.190,2.460
-0.280,0.030,3.060
-0.280,0.030,3.060
-0.280,0.030,3.060
-0.280,0.030,3.060
-0.940,0.960,2.920
-0.940,0.960,2.920
-0.940,0.960,2.920
-0.940,0.960,2.920
-0.930,1.000,1.690
-0.930,1.000,1.690
-0.930,1.000,1.690
-2.240,-1.290,0.080
-2.240,-1.290,0.080
-2.240,-1.290,0.080
-2.240,-1.290,0.080
-2.240,-1.290,0.080
-2.240,-1.290,0.080
-3.060,-1.230,-0.370
-3.060,-1.230,-0.370
-3.060,-1.230,-0.370
-3.060,-1.230,-0.370
-3.060,-1.230,-0.370
-3.360,-0.420,-2.030
-3.360,-0.420,-2.030
-3.360,-0.420,-2.030
-3.360,-0.420,-2.030
-4.860,1.720,-5.770
-4.860,1.720,-5.770
-4.860,1.720,-5.770
-4.860,1.720,-5.770
,,,
-1.760,0.230,-2.760
-0.990,0.480,-0.240
-2.140,0.950,-2.780
0.340,-1.250,-1.680
1.810,-0.930,3.160
1.470,0.790,0.530
0.460,-1.390,-3.080
-2.010,-1.970,-2.430
-3.030,-0.760,-4.130
1.810,0.900,3.080
1.140,-0.880,4.000
-3.000,-0.970,-2.290
-1.250,-2.430,-6.880
6.180,1.140,6.470
-1.900,-2.900,-7.800
4.870,1.660,4.620
-5.560,-0.850,-3.060
3.710,-1.780,1.050
3.710,-1.780,1.050
3.710,-1.780,1.050
3.710,-1.780,1.050
3.780,-1.280,1.370
3.780,-1.280,1.370
3.780,-1.280,1.370
3.780,-1.280,1.370
3.780,-1.280,1.370
4.220,0.620,4.060
4.220,0.620,4.060
4.220,0.620,4.060
4.220,0.620,4.060
4.220,0.620,4.060
4.220,0.620,4.060
4.990,0.420,5.160
4.990,0.420,5.160
4.990,0.420,5.160
4.990,0.420,5.160
5.460,0.150,5.780
5.460,0.150,5.780
5.460,0.150,5.780
5.460,0.150,5.780
6.520,0.590,5.840
6.520,0.590,5.840
6.520,0.590,5.840
6.520,0.590,5.840
5.710,-2.100,7.830
5.710,-2.100,7.830
5.710,-2.100,7.830
5.710,-2.100,7.830
5.710,-2.100,7.830
2.830,-1.220,5.900
,,,
-0.990,0.480,-0.240
-2.140,0.950,-2.780
0.340,-1.250,-1.680
1.810,-0.930,3.160
1.470,0.790,0.530
0.460,-1.390,-3.080
-2.010,-1.970,-2.430
-3.030,-0.760,-4.130
1.810,0.900,3.080
1.140,-0.880,4.000
-3.000,-0.970,-2.290
-1.250,-2.430,-6.880
6.180,1.140,6.470
-1.900,-2.900,-7.800
4.870,1.660,4.620
-5.560,-0.850,-3.060
4.020,-0.400,4.720
1.590,0.920,3.400
1.590,0.920,3.400
1.590,0.920,3.400
1.590,0.920,3.400
1.590,0.920,3.400
1.130,0.870,3.270
1.130,0.870,3.270
1.130,0.870,3.270
1.130,0.870,3.270
0.590,-0.700,2.870
0.590,-0.700,2.870
0.590,-0.700,2.870
0.590,-0.700,2.870
0.230,-1.530,2.900
0.230,-1.530,2.900
0.230,-1.530,2.900
-0.260,-2.530,2.660
-0.260,-2.530,2.660
-0.260,-2.530,2.660
-0.260,-2.530,2.660
-0.260,-2.530,2.660
-0.260,-2.530,2.660
-0.830,-2.630,-0.820
-0.830,-2.630,-0.820
-0.830,-2.630,-0.820
-0.830,-2.630,-0.820
-0.830,-2.630,-0.820
-0.550,-2.200,-3.110
-0.550,-2.200,-3.110
-0.550,-2.200,-3.110
-0.550,-2.200,-3.110
-0.550,-2.200,-3.110
-1.830,-1.580,-5.300
,,,
-2.140,0.950,-2.780
0.340,-1.250,-1.680
1.810,-0.930,3.160
1.470,0.790,0.530
0.460,-1.390,-3.080
-2.010,-1.970,-2.430
-3.030,-0.760,-4.130
1.810,0.900,3.080
1.140,-0.880,4.000
-3.000,-0.970,-2.290
-1.250,-2.430,-6.880
6.180,1.140,6.470
-1.900,-2.900,-7.800
4.870,1.660,4.620
-5.560,-0.850,-3.060
4.020,-0.400,4.720
-4.350,-1.690,-7.270
1.350,-2.950,-1.510
1.350,-2.950,-1.510
1.350,-2.950,-1.510
2.150,-2.080,-0.480
2.150,-2.080,-0.480
2.150,-2.080,-0.480
2.150,-2.080,-0.480
1.840,-1.690,0.350
1.840,-1.690,0.350
1.840,-1.690,0.350
1.840,-1.690,0.350
1.840,-1.690,0.350
1.520,0.240,2.350
1.520,0.240,2.350
1.520,0.240,2.350
1.520,0.240,2.350
1.520,0.240,2.350
1.520,0.240,2.350
2.620,2.940,4.180
2.620,2.940,4.180
2.620,2.940,4.180
2.620,2.940,4.180
4.070,3.330,3.510
4.070,3.330,3.510
4.070,3.330,3.510
4.470,0.880,4.200
4.470,0.880,4.200
4.470,0.880,4.200
4.470,0.880,4.200
5.170,-0.570,7.480
5.170,-0.570,7.480
5.170,-0.570,7.480
5.170,-0.570,7.480
,,,
0.340,-1.250,-1.680
1.810,-0.930,3.160
1.470,0.790,0.530
0.460,-1.390,-3.080
-2.010,-1.970,-2.430
-3.030,-0.760,-4.130
1.810,0.900,3.080
1.140,-0.880,4.000
-3.000,-0.970,-2.290
-1.250,-2.430,-6.880
6.180,1.140,6.470
-1.900,-2.900,-7.800
4.870,1.660,4.620
-5.560,-0.850,-3.060
4.020,-0.400,4.720
-4.350,-1.690,-7.270
4.190,1.540,5.650
1.950,1.590,4.040
1.950,1.590,4.040
1.950,1.590,4.040
0.130,1.170,3.810
0.130,1.170,3.810
0.130,1.170,3.810
0.130,1.170,3.810
0.130,1.170,3.810
-0.880,1.680,3.710
-0.880,1.680,3.710
-0.880,1.680,3.710
-0.880,1.680,3.710
-0.770,1.300,3.090
-0.770,1.300,3.090
-0.770,1.300,3.090
-0.770,1.300,3.090
-1.620,-0.930,2.060
-1.620,-0.930,2.060
-1.620,-0.930,2.060
-2.590,-1.420,1.940
-2.590,-1.420,1.940
-2.590,-1.420,1.940
-2.590,-1.420,1.940
-2.590,-1.420,1.940
-2.590,-1.420,1.940
-3.170,-0.620,0.530
-3.170,-0.620,0.530
-3.170,-0.620,0.530
-3.170,-0.620,0.530
-3.170,-0.620,0.530
-3.170,-0.620,0.530
-2.540,-1.750,-3.880
-2.540,-1.750,-3.880
,,,
1.810,-0.930,3.160
1.470,0.790,0.530
0.460,-1.390,-3.080
-2.010,-1.970,-2.430
-3.030,-0.760,-4.130
1.810,0.900,3.080
1.140,-0.880,4.000
-3.000,-0.970,-2.290
-1.250,-2.430,-6.880
6.180,1.140,6.470
-1.900,-2.900,-7.800
4.870,1.660,4.620
-5.560,-0.850,-3.060
4.020,-0.400,4.720
-4.350,-1.690,-7.270
4.190,1.540,5.650
-4.710,0.470,-6.070
1.190,-3.860,-2.620
1.190,-3.860,-2.620
1.650,-4.220,-1.540
1.650,-4.220,-1.540
1.650,-4.220,-1.540
1.650,-4.220,-1.540
1.800,-3.650,0.390
1.800,-3.650,0.390
1.800,-3.650,0.390
1.280,-0.870,2.410
1.280,-0.870,2.410
1.280,-0.870,2.410
1.280,-0.870,2.410
1.280,-0.870,2.410
1.280,-0.870,2.410
1.050,1.060,4.620
1.050,1.060,4.620
1.050,1.060,4.620
1.050,1.060,4.620
1.050,1.060,4.620
1.400,2.460,5.570
1.400,2.460,5.570
1.400,2.460,5.570
1.400,2.460,5.570
1.400,2.460,5.570
2.630,2.260,5.100
2.630,2.260,5.100
2.630,2.260,5.100
4.570,2.140,7.360
4.570,2.140,7.360
4.570,2.140,7.360
4.570,2.140,7.360
5.190,0.910,9.440
,,,
1.470,0.790,0.530
0.460,-1.390,-3.080
-2.010,-1.970,-2.430
-3.030,-0.760,-4.130
1.810,0.900,3.080
1.140,-0.880,4.000
-3.000,-0.970,-2.290
-1.250,-2.430,-6.880
6.180,1.140,6.470
-1.900,-2.900,-7.800
4.870,1.660,4.620
-5.560,-0.850,-3.060
4.020,-0.400,4.720
-4.350,-1.690,-7.270
4.190,1.540,5.650
-4.710,0.470,-6.070
6.980,0.200,8.080
-0.650,1.610,1.760
-0.650,1.610,1.760
-0.650,1.610,1.760
-0.650,1.610,1.760
-0.650,1.610,1.760
-0.950,0.610,0.570
-0.950,0.610,0.570
-0.950,0.610,0.570
-0.950,0.610,0.570
-0.950,0.610,0.570
-2.620,-1.180,-1.360
-2.620,-1.180,-1.360
-2.620,-1.180,-1.360
-2.620,-1.180,-1.360
-4.160,-0.440,-1.760
-4.160,-0.440,-1.760
-4.160,-0.440,-1.760
-4.160,-0.440,-1.760
-4.220,0.820,-3.380
-4.220,0.820,-3.380
-4.220,0.820,-3.380
-4.220,0.820,-3.380
-6.470,0.790,-6.070
-6.470,0.790,-6.070
-6.470,0.790,-6.070
-6.470,0.790,-6.070
-6.470,0.790,-6.070
-7.280,0.600,-6.830
-7.280,0.600,-6.830
-7.280,0.600,-6.830
-7.280,0.600,-6.830
-7.280,0.600,-6.830
-7.280,0.600,-6.830
,,,
0.460,-1.390,-3.080
-2.010,-1.970,-2.430
-3.030,-0.760,-4.130
1.810,0.900,3.080
1.140,-0.880,4.000
-3.000,-0.970,-2.290
-1.250,-2.430,-6.880
6.180,1.140,6.470
-1.900,-2.900,-7.800
4.870,1.660,4.620
-5.560,-0.850,-3.060
4.020,-0.400,4.720
-4.350,-1.690,-7.270
4.190,1.540,5.650
-4.710,0.470,-6.070
6.980,0.200,8.080
-4.470,-0.200,-4.450
3.340,-4.090,-0.980
3.340,-4.090,-0.980
3.340,-4.090,-0.980
3.340,-4.090,-0.980
3.400,-2.430,1.720
3.400,-2.430,1.720
3.400,-2.430,1.720
3.400,-2.430,1.720
2.660,-0.090,2.840
2.660,-0.090,2.840
2.660,-0.090,2.840
3.250,1.740,2.330
3.250,1.740,2.330
3.250,1.740,2.330
3.250,1.740,2.330
3.250,1.740,2.330
3.250,1.740,2.330
3.670,1.940,3.580
3.670,1.940,3.580
3.670,1.940,3.580
3.670,1.940,3.580
3.670,1.940,3.580
3.800,2.410,5.360
3.800,2.410,5.360
3.800,2.410,5.360
3.800,2.410,5.360
5.230,1.710,5.900
5.230,1.710,5.900
5.230,1.710,5.900
5.230,1.710,5.900
6.240,0.190,6.350
6.240,0.190,6.350
6.240,0.190,6.350
,,,
1.140,-0.880,4.000
-3.000,-0.970,-2.290
-1.250,-2.430,-6.880
6.180,1.140,6.470
-1.900,-2.900,-7.800
4.870,1.660,4.620
-5.560,-0.850,-3.060
4.020,-0.400,4.720
-4.350,-1.690,-7.270
4.190,1.540,5.650
-4.710,0.470,-6.070
6.980,0.200,8.080
-4.470,-0.200,-4.450
4.640,2.130,2.050
-2.430,0.800,-0.600
-1.710,-2.250,-3.360
5.750,0.850,5.870
-0.460,1.100,2.170
-0.460,1.100,2.170
-0.460,1.100,2.170
-0.460,1.100,2.170
-0.470,1.100,1.700
-0.470,1.100,1.700
-0.470,1.100,1.700
-0.470,1.100,1.700
-0.470,1.100,1.700
-1.000,0.690,1.100
-1.000,0.690,1.100
-1.000,0.690,1.100
-1.000,0.690,1.100
-1.000,0.690,1.100
-1.400,-0.320,0.490
-1.400,-0.320,0.490
-1.400,-0.320,0.490
-2.010,-0.740,-0.040
-2.010,-0.740,-0.040
-2.010,-0.740,-0.040
-2.010,-0.740,-0.040
-2.640,0.070,-0.690
-2.640,0.070,-0.690
-2.640,0.070,-0.690
-2.640,0.070,-0.690
-2.640,0.070,-0.690
-2.640,0.070,-0.690
-3.000,0.180,-4.780
-3.000,0.180,-4.780
-3.000,0.180,-4.780
-3.000,0.180,-4.780
-3.000,0.180,-4.780
-3.000,0.180,-4.780
,,,
4.870,1.660,4.620
-5.560,-0.850,-3.060
4.020,-0.400,4.720
-4.350,-1.690,-7.270
4.190,1.540,5.650
-4.710,0.470,-6.070
6.980,0.200,8.080
-4.470,-0.200,-4.450
4.640,2.130,2.050
-2.430,0.800,-0.600
-1.710,-2.250,-3.360
5.750,0.850,5.870
1.890,-0.500,2.960
1.040,0.540,1.460
-2.500,-0.270,-2.550
-0.190,-1.280,-2.150
4.500,0.700,5.290
-0.540,0.510,2.240
-0.540,0.510,2.240
-0.540,0.510,2.240
-0.630,0.690,1.690
-0.630,0.690,1.690
-0.630,0.690,1.690
-0.630,0.690,1.690
-0.570,1.010,1.200
-0.570,1.010,1.200
-0.570,1.010,1.200
-0.570,1.010,1.200
-0.570,1.010,1.200
-0.570,1.010,1.200
-0.800,0.690,1.070
-0.800,0.690,1.070
-0.800,0.690,1.070
-0.800,0.690,1.070
-0.800,0.690,1.070
-1.010,0.040,0.340
-1.010,0.040,0.340
-1.010,0.040,0.340
-1.010,0.040,0.340
-1.010,0.040,0.340
-0.520,0.400,-0.310
-0.520,0.400,-0.310
-0.520,0.400,-0.310
-0.670,-0.440,-1.360
-0.670,-0.440,-1.360
-0.670,-0.440,-1.360
-0.670,-0.440,-1.360
0.620,-0.950,-2.530
0.620,-0.950,-2.530
0.620,-0.950,-2.530
,,,
-5.560,-0.850,-3.060
4.020,-0.400,4.720
-4.350,-1.690,-7.270
4.190,1.540,5.650
-4.710,0.470,-6.070
6.980,0.200,8.080
-4.470,-0.200,-4.450
4.640,2.130,2.050
-2.430,0.800,-0.600
-1.710,-2.250,-3.360
5.750,0.850,5.870
1.890,-0.500,2.960
1.040,0.540,1.460
-2.500,-0.270,-2.550
-0.190,-1.280,-2.150
4.500,0.700,5.290
5.090,-1.440,8.150
-0.770,-0.080,3.030
-0.770,-0.080,3.030
-0.770,-0.080,3.030
-0.550,-0.200,2.830
-0.550,-0.200,2.830
-0.550,-0.200,2.830
-0.550,-0.200,2.830
-0.550,-0.200,2.830
-0.550,-0.200,2.830
0.810,0.980,2.450
0.810,0.980,2.450
0.810,0.980,2.450
0.810,0.980,2.450
0.210,0.930,1.660
0.210,0.930,1.660
0.210,0.930,1.660
0.210,0.930,1.660
-0.670,0.830,0.790
-0.670,0.830,0.790
-0.670,0.830,0.790
-1.130,1.640,0.620
-1.130,1.640,0.620
-1.130,1.640,0.620
-1.130,1.640,0.620
-1.130,1.640,0.620
-1.130,1.640,0.620
-0.310,0.960,-0.860
-0.310,0.960,-0.860
-0.310,0.960,-0.860
-0.310,0.960,-0.860
-0.310,0.960,-0.860
-0.660,-1.360,-1.980
-0.660,-1.360,-1.980
,,,
-0.350,0.630,-1.950
-0.790,-1.070,-1.790
-0.410,0.980,0.280
0.880,0.480,1.310
-0.120,-0.100,0.310
0.710,0.220,0.100
0.200,0.620,1.150
1.680,-0.240,1.850
-3.350,-0.810,-4.650
-2.150,-1.430,-4.580
1.210,1.110,5.560
4.290,-0.220,0.940
-1.560,-0.850,0.120
-4.840,1.200,-2.730
1.990,0.430,2.100
3.340,-0.220,4.210
-8.680,-0.360,-7.050
1.550,-1.250,-4.690
1.550,-1.250,-4.690
2.640,-2.740,0.330
2.640,-2.740,0.330
2.640,-2.740,0.330
4.140,-0.390,3.700
4.140,-0.390,3.700
4.140,-0.390,3.700
4.140,-0.390,3.700
5.210,0.970,5.870
5.210,0.970,5.870
5.210,0.970,5.870
5.210,0.970,5.870
5.210,0.970,5.870
5.210,0.970,5.870
8.230,-4.630,21.450
8.230,-4.630,21.450
8.230,-4.630,21.450
8.230,-4.630,21.450
8.230,-4.630,21.450
9.370,0.300,19.320
9.370,0.300,19.320
9.370,0.300,19.320
9.370,0.300,19.320
11.830,-0.740,12.700
11.830,-0.740,12.700
11.830,-0.740,12.700
11.830,-0.740,12.700
8.020,0.290,6.760
8.020,0.290,6.760
8.020,0.290,6.760
8.020,0.290,6.760
6.790,0.580,5.310
,,,
-0.790,-1.070,-1.790
-0.410,0.980,0.280
0.880,0.480,1.310
-0.120,-0.100,0.310
0.710,0.220,0.100
0.200,0.620,1.150
1.680,-0.240,1.850
-3.350,-0.810,-4.650
-2.150,-1.430,-4.580
1.210,1.110,5.560
4.290,-0.220,0.940
-1.560,-0.850,0.120
-4.840,1.200,-2.730
1.990,0.430,2.100
3.340,-0.220,4.210
-8.680,-0.360,-7.050
-4.450,-1.340,-3.640
1.090,-0.490,-1.000
1.090,-0.490,-1.000
1.090,-0.490,-1.000
1.090,-0.490,-1.000
1.090,-0.490,-1.000
2.020,-0.010,-1.180
2.020,-0.010,-1.180
2.020,-0.010,-1.180
2.020,-0.010,-1.180
2.020,-0.010,-1.180
2.300,0.660,2.750
2.300,0.660,2.750
2.300,0.660,2.750
2.300,0.660,2.750
3.160,1.030,3.070
3.160,1.030,3.070
3.160,1.030,3.070
3.160,1.030,3.070
4.550,3.000,1.150
4.550,3.000,1.150
4.550,3.000,1.150
4.550,3.000,1.150
4.490,0.100,1.540
4.490,0.100,1.540
4.490,0.100,1.540
4.490,0.100,1.540
4.490,0.100,1.540
4.490,0.100,1.540
4.980,1.380,3.560
4.980,1.380,3.560
4.980,1.380,3.560
4.980,1.380,3.560
4.980,1.380,3.560
,,,
1.210,1.110,5.560
4.290,-0.220,0.940
-1.560,-0.850,0.120
-4.840,1.200,-2.730
1.990,0.430,2.100
3.340,-0.220,4.210
-8.680,-0.360,-7.050
-4.450,-1.340,-3.640
2.660,0.820,2.840
-1.320,1.010,0.640
-0.620,-0.440,-1.500
-1.060,-0.450,-1.090
1.670,-1.570,-1.380
0.040,0.340,1.040
1.070,0.750,2.780
1.060,-1.870,0.610
-6.580,0.240,-6.740
-2.330,1.440,1.040
-2.330,1.440,1.040
-2.330,1.440,1.040
-2.330,1.440,1.040
-0.910,0.530,1.530
-0.910,0.530,1.530
-0.910,0.530,1.530
-0.910,0.530,1.530
-0.910,0.530,1.530
-0.910,0.530,1.530
0.780,-1.330,0.050
0.780,-1.330,0.050
0.780,-1.330,0.050
0.780,-1.330,0.050
0.780,-1.330,0.050
1.190,-0.850,2.650
1.190,-0.850,2.650
1.190,-0.850,2.650
1.190,-0.850,2.650
1.470,0.230,4.960
1.470,0.230,4.960
1.470,0.230,4.960
1.470,0.230,4.960
3.930,0.900,5.140
3.930,0.900,5.140
3.930,0.900,5.140
3.930,0.900,5.140
5.160,-1.200,3.950
5.160,-1.200,3.950
5.160,-1.200,3.950
5.160,-1.200,3.950
5.160,-1.200,3.950
5.940,0.470,5.000
,,,
-1.320,1.010,0.640
-0.620,-0.440,-1.500
-1.060,-0.450,-1.090
1.670,-1.570,-1.380
0.040,0.340,1.040
1.070,0.750,2.780
1.060,-1.870,0.610
-6.580,0.240,-6.740
-0.200,-2.540,-3.890
-0.390,0.930,-1.260
0.670,-0.040,1.600
0.650,0.530,-0.580
1.540,0.480,3.110
1.030,-0.760,0.160
-1.840,-0.970,-2.100
-3.490,0.820,-3.890
6.810,0.280,3.740
3.670,-1.150,5.880
3.670,-1.150,5.880
1.830,-1.240,6.200
1.830,-1.240,6.200
1.830,-1.240,6.200
1.830,-1.240,6.200
2.940,0.220,5.380
2.940,0.220,5.380
2.940,0.220,5.380
2.310,-1.270,3.720
2.310,-1.270,3.720
2.310,-1.270,3.720
2.310,-1.270,3.720
2.310,-1.270,3.720
2.310,-1.270,3.720
1.000,-3.920,1.710
1.000,-3.920,1.710
1.000,-3.920,1.710
1.000,-3.920,1.710
1.000,-3.920,1.710
1.000,-3.920,1.710
1.000,-0.420,0.540
1.000,-0.420,0.540
1.000,-0.420,0.540
1.000,-0.420,0.540
-0.140,-0.140,-1.380
-0.140,-0.140,-1.380
-0.140,-0.140,-1.380
-1.580,-1.810,-2.810
-1.580,-1.810,-2.810
-1.580,-1.810,-2.810
-1.580,-1.810,-2.810
-6.790,-1.770,-3.690
,,,
-0.620,-0.440,-1.500
-1.060,-0.450,-1.090
1.670,-1.570,-1.380
0.040,0.340,1.040
1.070,0.750,2.780
1.060,-1.870,0.610
-6.580,0.240,-6.740
-0.200,-2.540,-3.890
-0.390,0.930,-1.260
0.670,-0.040,1.600
0.650,0.530,-0.580
1.540,0.480,3.110
1.030,-0.760,0.160
-1.840,-0.970,-2.100
-3.490,0.820,-3.890
6.810,0.280,3.740
5.370,1.750,8.840
-0.340,-0.560,3.770
-0.340,-0.560,3.770
-0.340,-0.560,3.770
-0.340,-0.560,3.770
-0.340,-0.560,3.770
1.120,-0.410,2.940
1.120,-0.410,2.940
1.120,-0.410,2.940
1.120,-0.410,2.940
1.120,-0.410,2.940
1.420,0.100,1.570
1.420,0.100,1.570
1.420,0.100,1.570
1.420,0.100,1.570
1.990,0.590,1.200
1.990,0.590,1.200
1.990,0.590,1.200
1.990,0.590,1.200
1.050,0.370,1.440
1.050,0.370,1.440
1.050,0.370,1.440
1.050,0.370,1.440
-0.930,0.810,2.010
-0.930,0.810,2.010
-0.930,0.810,2.010
-0.930,0.810,2.010
-0.930,0.810,2.010
-0.930,0.810,2.010
-2.680,-2.550,-0.030
-2.680,-2.550,-0.030
-2.680,-2.550,-0.030
-2.680,-2.550,-0.030
-2.680,-2.550,-0.030
,,,
1.670,-1.570,-1.380
0.040,0.340,1.040
1.070,0.750,2.780
1.060,-1.870,0.610
-6.580,0.240,-6.740
-0.200,-2.540,-3.890
-0.390,0.930,-1.260
0.670,-0.040,1.600
0.650,0.530,-0.580
1.540,0.480,3.110
1.030,-0.760,0.160
-1.840,-0.970,-2.100
-3.490,0.820,-3.890
6.810,0.280,3.740
5.370,1.750,8.840
0.710,0.060,1.820
-5.880,-0.280,-7.220
1.730,-0.290,1.180
1.730,-0.290,1.180
1.730,-0.290,1.180
1.720,1.270,2.820
1.720,1.270,2.820
1.720,1.270,2.820
1.720,1.270,2.820
5.040,2.120,3.950
5.040,2.120,3.950
5.040,2.120,3.950
5.040,2.120,3.950
4.930,0.830,3.310
4.930,0.830,3.310
4.930,0.830,3.310
4.930,0.830,3.310
4.930,0.830,3.310
4.930,0.830,3.310
5.550,0.920,4.300
5.550,0.920,4.300
5.550,0.920,4.300
5.550,0.920,4.300
5.550,0.920,4.300
6.780,-0.880,8.630
6.780,-0.880,8.630
6.780,-0.880,8.630
6.780,-0.880,8.630
7.040,-1.660,10.570
7.040,-1.660,10.570
7.040,-1.660,10.570
7.040,-1.660,10.570
4.800,-0.730,9.390
4.800,-0.730,9.390
4.800,-0.730,9.390
,,,
0.040,0.340,1.040
1.070,0.750,2.780
1.060,-1.870,0.610
-6.580,0.240,-6.740
-0.200,-2.540,-3.890
-0.390,0.930,-1.260
0.670,-0.040,1.600
0.650,0.530,-0.580
1.540,0.480,3.110
1.030,-0.760,0.160
-1.840,-0.970,-2.100
-3.490,0.820,-3.890
6.810,0.280,3.740
5.370,1.750,8.840
0.710,0.060,1.820
-5.880,-0.280,-7.220
5.870,2.250,3.740
2.460,0.920,3.230
0.870,0.200,2.020
0.870,0.200,2.020
0.870,0.200,2.020
0.870,0.200,2.020
0.870,0.200,2.020
-0.280,0.920,2.620
-0.280,0.920,2.620
-0.280,0.920,2.620
-0.280,0.920,2.620
-0.280,0.920,2.620
-0.280,0.920,2.620
-0.920,1.850,2.520
-0.920,1.850,2.520
-0.920,1.850,2.520
-0.920,1.850,2.520
-0.560,1.790,1.320
-0.560,1.790,1.320
-0.560,1.790,1.320
-1.930,0.270,0.160
-1.930,0.270,0.160
-1.930,0.270,0.160
-1.930,0.270,0.160
-3.180,-0.870,-0.190
-3.180,-0.870,-0.190
-3.180,-0.870,-0.190
-3.180,-0.870,-0.190
-3.180,-0.870,-0.190
-3.180,-0.870,-0.190
-3.560,-0.650,-1.180
-3.560,-0.650,-1.180
-3.560,-0.650,-1.180
-3.560,-0.650,-1.180
,,,
1.060,-1.870,0.610
-6.580,0.240,-6.740
-0.200,-2.540,-3.890
-0.390,0.930,-1.260
0.670,-0.040,1.600
0.650,0.530,-0.580
1.540,0.480,3.110
1.030,-0.760,0.160
-1.840,-0.970,-2.100
-3.490,0.820,-3.890
6.810,0.280,3.740
5.370,1.750,8.840
0.710,0.060,1.820
-5.880,-0.280,-7.220
5.870,2.250,3.740
0.450,1.720,3.170
-7.290,-0.210,-7.380
3.410,-0.560,-0.380
3.160,-0.660,6.060
3.160,-0.660,6.060
3.160,-0.660,6.060
4.760,-0.100,8.050
4.760,-0.100,8.050
4.760,-0.100,8.050
4.760,-0.100,8.050
5.490,2.770,7.440
5.490,2.770,7.440
5.490,2.770,7.440
5.490,2.770,7.440
6.370,0.500,9.780
6.370,0.500,9.780
6.370,0.500,9.780
6.370,0.500,9.780
6.370,0.500,9.780
6.370,0.500,9.780
6.920,-0.760,11.580
6.920,-0.760,11.580
6.920,-0.760,11.580
6.920,-0.760,11.580
6.920,-0.760,11.580
4.590,-1.130,11.180
4.590,-1.130,11.180
4.590,-1.130,11.180
4.590,-1.130,11.180
5.150,1.530,3.770
5.150,1.530,3.770
5.150,1.530,3.770
5.150,1.530,3.770
5.540,1.320,2.810
5.540,1.320,2.810
,,,
-0.390,0.930,-1.260
0.670,-0.040,1.600
0.650,0.530,-0.580
1.540,0.480,3.110
1.030,-0.760,0.160
-1.840,-0.970,-2.100
-3.490,0.820,-3.890
6.810,0.280,3.740
5.370,1.750,8.840
0.710,0.060,1.820
-5.880,-0.280,-7.220
5.870,2.250,3.740
0.450,1.720,3.170
-7.290,-0.210,-7.380
4.710,1.680,2.050
-3.090,0.250,-1.770
-2.040,-1.710,-6.450
4.830,-0.920,9.820
4.830,-0.920,9.820
4.830,-0.920,9.820
4.830,-0.920,9.820
4.830,-0.920,9.820
4.830,-0.920,9.820
2.530,0.670,6.750
2.530,0.670,6.750
2.530,0.670,6.750
2.530,0.670,6.750
2.530,0.670,6.750
4.570,0.850,2.670
4.570,0.850,2.670
4.570,0.850,2.670
4.570,0.850,2.670
4.570,0.850,2.670
4.330,0.740,2.480
4.330,0.740,2.480
4.330,0.740,2.480
3.360,0.070,3.380
3.360,0.070,3.380
3.360,0.070,3.380
3.360,0.070,3.380
1.940,0.620,3.050
1.940,0.620,3.050
1.940,0.620,3.050
1.940,0.620,3.050
1.940,0.620,3.050
1.940,0.620,3.050
1.970,0.060,2.680
1.970,0.060,2.680
1.970,0.060,2.680
1.970,0.060,2.680
,,,
0.650,0.530,-0.580
1.540,0.480,3.110
1.030,-0.760,0.160
-1.840,-0.970,-2.100
-3.490,0.820,-3.890
6.810,0.280,3.740
5.370,1.750,8.840
0.710,0.060,1.820
-5.880,-0.280,-7.220
5.870,2.250,3.740
0.450,1.720,3.170
-7.290,-0.210,-7.380
4.710,1.680,2.050
-3.090,0.250,-1.770
-2.040,-1.710,-6.450
0.940,1.030,2.830
-5.520,-1.180,-5.500
0.990,-3.310,0.300
0.990,-3.310,0.300
0.990,-3.310,0.300
0.990,-3.310,0.300
2.630,-1.070,-0.480
2.630,-1.070,-0.480
2.630,-1.070,-0.480
2.630,-1.070,-0.480
3.360,0.510,-0.210
3.360,0.510,-0.210
3.360,0.510,-0.210
3.360,0.510,-0.210
1.450,-0.100,3.130
1.450,-0.100,3.130
1.450,-0.100,3.130
1.450,-0.100,3.130
1.450,-0.100,3.130
3.420,0.730,3.690
3.420,0.730,3.690
3.420,0.730,3.690
3.420,0.730,3.690
3.420,0.730,3.690
3.420,0.730,3.690
5.550,2.640,1.690
5.550,2.640,1.690
5.550,2.640,1.690
5.550,2.640,1.690
4.880,0.240,3.410
4.880,0.240,3.410
4.880,0.240,3.410
4.880,0.240,3.410
5.580,-0.310,6.200
5.580,-0.310,6.200
,,,
1.030,-0.760,0.160
-1.840,-0.970,-2.100
-3.490,0.820,-3.890
6.810,0.280,3.740
5.370,1.750,8.840
0.710,0.060,1.820
-5.880,-0.280,-7.220
5.870,2.250,3.740
0.450,1.720,3.170
-7.290,-0.210,-7.380
4.710,1.680,2.050
-3.090,0.250,-1.770
-2.040,-1.710,-6.450
0.940,1.030,2.830
-5.520,-1.180,-5.500
-1.150,-3.000,-2.330
2.350,2.550,5.070
-0.950,0.840,0.190
-1.910,0.210,-0.330
-1.910,0.210,-0.330
-1.910,0.210,-0.330
-1.910,0.210,-0.330
-1.910,0.210,-0.330
-1.910,0.210,-0.330
-2.880,0.080,-0.760
-2.880,0.080,-0.760
-2.880,0.080,-0.760
-2.880,0.080,-0.760
-2.880,0.080,-0.760
-2.930,0.820,-1.790
-2.930,0.820,-1.790
-2.930,0.820,-1.790
-2.930,0.820,-1.790
-4.500,-0.810,-4.540
-4.500,-0.810,-4.540
-4.500,-0.810,-4.540
-4.500,-0.810,-4.540
-5.490,-1.220,-5.180
-5.490,-1.220,-5.180
-5.490,-1.220,-5.180
-5.490,-1.220,-5.180
-5.730,-1.250,-6.110
-5.730,-1.250,-6.110
-5.730,-1.250,-6.110
-5.730,-1.250,-6.110
-5.730,-1.250,-6.110
-2.870,-2.390,-5.900
-2.870,-2.390,-5.900
-2.870,-2.390,-5.900
-2.870,-2.390,-5.900
,,,
-7.290,-0.210,-7.380
4.710,1.680,2.050
-3.090,0.250,-1.770
-2.040,-1.710,-6.450
0.940,1.030,2.830
-5.520,-1.180,-5.500
-1.150,-3.000,-2.330
2.350,2.550,5.070
-1.460,0.910,0.820
-3.680,0.580,-2.460
3.670,0.220,3.410
-1.190,0.310,0.390
0.320,-1.050,-0.290
0.630,-0.750,1.010
-0.900,-1.750,-2.140
-0.830,-1.300,-3.070
-5.610,7.210,-14.470
1.510,-8.080,-15.860
1.510,-8.080,-15.860
1.510,-8.080,-15.860
4.820,-7.530,-14.970
4.820,-7.530,-14.970
4.820,-7.530,-14.970
4.820,-7.530,-14.970
5.330,-6.690,-13.910
5.330,-6.690,-13.910
5.330,-6.690,-13.910
5.330,-6.690,-13.910
5.330,-6.690,-13.910
4.530,-5.730,-12.370
4.530,-5.730,-12.370
4.530,-5.730,-12.370
4.530,-5.730,-12.370
4.530,-5.730,-12.370
-1.410,-7.100,-7.250
-1.410,-7.100,-7.250
-1.410,-7.100,-7.250
-1.410,-7.100,-7.250
-1.410,-7.100,-7.250
-3.920,-7.350,-4.620
-3.920,-7.350,-4.620
-3.920,-7.350,-4.620
-4.770,-6.830,-2.370
-4.770,-6.830,-2.370
-4.770,-6.830,-2.370
-4.770,-6.830,-2.370
-3.970,-5.780,-0.490
-3.970,-5.780,-0.490
-3.970,-5.780,-0.490
-3.970,-5.780,-0.490
,,,
0.940,1.030,2.830
-5.520,-1.180,-5.500
-1.150,-3.000,-2.330
2.350,2.550,5.070
-1.460,0.910,0.820
-3.680,0.580,-2.460
3.670,0.220,3.410
-1.190,0.310,0.390
0.320,-1.050,-0.290
0.630,-0.750,1.010
-0.900,-1.750,-2.140
-0.830,-1.300,-3.070
-5.610,7.210,-14.470
-0.480,0.600,-0.250
0.410,1.420,-0.150
-0.160,6.610,-1.220
4.400,2.200,-24.500
-4.260,0.920,-0.810
-4.260,0.920,-0.810
-4.260,0.920,-0.810
-4.260,0.920,-0.810
-4.260,0.920,-0.810
-2.760,-0.840,-0.750
-2.760,-0.840,-0.750
-2.760,-0.840,-0.750
-2.760,-0.840,-0.750
-1.540,-2.980,-0.650
-1.540,-2.980,-0.650
-1.540,-2.980,-0.650
-1.540,-2.980,-0.650
-0.110,-6.070,0.370
-0.110,-6.070,0.370
-0.110,-6.070,0.370
-0.110,-6.070,0.370
-0.470,-5.420,1.290
-0.470,-5.420,1.290
-0.470,-5.420,1.290
-0.470,-5.420,1.290
-0.470,-5.420,1.290
-1.220,-3.810,2.160
-1.220,-3.810,2.160
-1.220,-3.810,2.160
-1.220,-3.810,2.160
-1.220,-3.810,2.160
-1.220,-3.810,2.160
-3.020,-1.290,3.370
-3.020,-1.290,3.370
-3.020,-1.290,3.370
-3.020,-1.290,3.370
-3.570,-0.790,3.570
,,,
2.350,2.550,5.070
-1.460,0.910,0.820
-3.680,0.580,-2.460
3.670,0.220,3.410
-1.190,0.310,0.390
0.320,-1.050,-0.290
0.630,-0.750,1.010
-0.900,-1.750,-2.140
-0.830,-1.300,-3.070
-5.610,7.210,-14.470
-0.480,0.600,-0.250
0.410,1.420,-0.150
-0.160,6.610,-1.220
4.400,2.200,-24.500
-0.600,1.700,0.020
0.590,5.730,-1.290
-1.030,4.580,-7.300
1.490,-7.970,-11.180
-1.190,-4.400,-7.960
-1.190,-4.400,-7.960
-1.190,-4.400,-7.960
-1.190,-4.400,-7.960
-4.790,-0.910,-3.840
-4.790,-0.910,-3.840
-4.790,-0.910,-3.840
-4.790,-0.910,-3.840
-4.790,-0.910,-3.840
-4.820,-0.480,-3.130
-4.820,-0.480,-3.130
-4.820,-0.480,-3.130
-4.820,-0.480,-3.130
-4.820,-0.480,-3.130
-4.820,-0.480,-3.130
-4.480,-0.970,-3.470
-4.480,-0.970,-3.470
-4.480,-0.970,-3.470
-4.480,-0.970,-3.470
-3.300,-2.870,-4.020
-3.300,-2.870,-4.020
-3.300,-2.870,-4.020
-3.300,-2.870,-4.020
-3.120,-3.090,-3.490
-3.120,-3.090,-3.490
-3.120,-3.090,-3.490
-3.120,-3.090,-3.490
-2.890,-3.530,-2.690
-2.890,-3.530,-2.690
-2.890,-3.530,-2.690
-2.890,-3.530,-2.690
-2.890,-3.530,-2.690
,,,
-1.460,0.910,0.820
-3.680,0.580,-2.460
3.670,0.220,3.410
-1.190,0.310,0.390
0.320,-1.050,-0.290
0.630,-0.750,1.010
-0.900,-1.750,-2.140
-0.830,-1.300,-3.070
-5.610,7.210,-14.470
-0.480,0.600,-0.250
0.410,1.420,-0.150
-0.160,6.610,-1.220
4.400,2.200,-24.500
-0.600,1.700,0.020
0.590,5.730,-1.290
-1.030,4.580,-7.300
-0.390,7.550,-3.110
-0.530,-0.180,-6.260
0.600,0.880,-7.180
0.600,0.880,-7.180
0.600,0.880,-7.180
0.600,0.880,-7.180
0.600,0.880,-7.180
1.480,0.090,-8.670
1.480,0.090,-8.670
1.480,0.090,-8.670
1.480,0.090,-8.670
1.950,-0.480,-9.700
1.950,-0.480,-9.700
1.950,-0.480,-9.700
1.950,-0.480,-9.700
1.990,-1.370,-10.170
1.990,-1.370,-10.170
1.990,-1.370,-10.170
1.990,-1.370,-10.170
0.330,-3.640,-8.820
0.330,-3.640,-8.820
0.330,-3.640,-8.820
0.330,-3.640,-8.820
0.330,-3.640,-8.820
-0.340,-4.340,-8.200
-0.340,-4.340,-8.200
-0.340,-4.340,-8.200
-0.340,-4.340,-8.200
-0.340,-4.340,-8.200
-0.340,-4.340,-8.200
-0.660,-4.690,-7.730
-0.660,-4.690,-7.730
-0.660,-4.690,-7.730
-0.660,-4.690,-7.730
,,,
-3.680,0.580,-2.460
3.670,0.220,3.410
-1.190,0.310,0.390
0.320,-1.050,-0.290
0.630,-0.750,1.010
-0.900,-1.750,-2.140
-0.830,-1.300,-3.070
-5.610,7.210,-14.470
-0.480,0.600,-0.250
0.410,1.420,-0.150
-0.160,6.610,-1.220
4.400,2.200,-24.500
-0.600,1.700,0.020
0.590,5.730,-1.290
-1.030,4.580,-7.300
-0.390,7.550,-3.110
-3.120,-3.440,-3.600
-1.100,-4.780,-1.170
-1.100,-4.780,-1.170
-1.100,-4.780,-1.170
-0.720,-5.270,-0.810
-0.720,-5.270,-0.810
-0.720,-5.270,-0.810
-0.720,-5.270,-0.810
-0.460,-5.180,-0.640
-0.460,-5.180,-0.640
-0.460,-5.180,-0.640
-0.460,-5.180,-0.640
-0.460,-5.180,-0.640
-0.460,-5.180,-0.640
0.010,-4.410,-0.060
0.010,-4.410,-0.060
0.010,-4.410,-0.060
0.010,-4.410,-0.060
0.010,-4.410,-0.060
0.010,-4.410,-0.060
-0.470,-4.530,0.320
-0.470,-4.530,0.320
-0.470,-4.530,0.320
-0.520,-4.990,0.770
-0.520,-4.990,0.770
-0.520,-4.990,0.770
-0.520,-4.990,0.770
-1.140,-6.760,1.700
-1.140,-6.760,1.700
-1.140,-6.760,1.700
-1.140,-6.760,1.700
-1.100,-6.690,1.970
-1.100,-6.690,1.970
-1.100,-6.690,1.970
,,,
3.670,0.220,3.410
-1.190,0.310,0.390
0.320,-1.050,-0.290
0.630,-0.750,1.010
-0.900,-1.750,-2.140
-0.830,-1.300,-3.070
-5.610,7.210,-14.470
-0.480,0.600,-0.250
0.410,1.420,-0.150
-0.160,6.610,-1.220
4.400,2.200,-24.500
-0.600,1.700,0.020
0.590,5.730,-1.290
-1.030,4.580,-7.300
-0.390,7.550,-3.110
-3.120,-3.440,-3.600
-2.160,-2.810,-6.400
-0.880,-1.820,-8.540
-0.880,-1.820,-8.540
-0.880,-1.820,-8.540
-0.400,-1.060,-7.700
-0.400,-1.060,-7.700
-0.400,-1.060,-7.700
-0.400,-1.060,-7.700
-0.400,-1.060,-7.700
-0.400,-1.060,-7.700
0.180,-0.160,-6.680
0.180,-0.160,-6.680
0.180,-0.160,-6.680
0.180,-0.160,-6.680
0.320,1.300,-5.600
0.320,1.300,-5.600
0.320,1.300,-5.600
0.320,1.300,-5.600
-0.080,2.190,-4.700
-0.080,2.190,-4.700
-0.080,2.190,-4.700
-0.030,3.260,-3.810
-0.030,3.260,-3.810
-0.030,3.260,-3.810
-0.030,3.260,-3.810
-0.030,3.260,-3.810
-0.030,3.260,-3.810
-0.250,4.720,-3.080
-0.250,4.720,-3.080
-0.250,4.720,-3.080
-0.250,4.720,-3.080
-0.250,4.720,-3.080
-0.700,5.290,-2.520
-0.700,5.290,-2.520
,,,
-1.190,0.310,0.390
0.320,-1.050,-0.290
0.630,-0.750,1.010
-0.900,-1.750,-2.140
-0.830,-1.300,-3.070
-5.610,7.210,-14.470
-0.480,0.600,-0.250
0.410,1.420,-0.150
-0.160,6.610,-1.220
4.400,2.200,-24.500
-0.600,1.700,0.020
0.590,5.730,-1.290
-1.030,4.580,-7.300
-0.390,7.550,-3.110
-3.120,-3.440,-3.600
-2.160,-2.810,-6.400
-0.360,-3.410,-11.270
-1.560,-1.520,-1.600
-1.560,-1.520,-1.600
-1.100,-0.570,-1.560
-1.100,-0.570,-1.560
-1.100,-0.570,-1.560
-1.100,-0.570,-1.560
-0.710,-0.840,-1.060
-0.710,-0.840,-1.060
-0.710,-0.840,-1.060
-0.710,-0.840,-1.060
-1.040,-1.410,-0.660
-1.040,-1.410,-0.660
-1.040,-1.410,-0.660
-1.040,-1.410,-0.660
-1.040,-1.410,-0.660
-1.040,-1.410,-0.660
-1.750,-1.930,-0.250
-1.750,-1.930,-0.250
-1.750,-1.930,-0.250
-1.750,-1.930,-0.250
-1.750,-1.930,-0.250
-1.720,-3.540,0.630
-1.720,-3.540,0.630
-1.720,-3.540,0.630
-1.720,-3.540,0.630
-1.980,-3.900,0.870
-1.980,-3.900,0.870
-1.980,-3.900,0.870
-1.980,-3.900,0.870
-1.910,-3.940,1.150
-1.910,-3.940,1.150
-1.910,-3.940,1.150
-1.910,-3.940,1.150
,,,
-0.900,-1.750,-2.140
-0.830,-1.300,-3.070
-5.610,7.210,-14.470
-0.480,0.600,-0.250
0.410,1.420,-0.150
-0.160,6.610,-1.220
4.400,2.200,-24.500
-0.600,1.700,0.020
0.590,5.730,-1.290
-1.030,4.580,-7.300
-0.390,7.550,-3.110
-3.120,-3.440,-3.600
-2.160,-2.810,-6.400
-0.360,-3.410,-11.270
-0.330,5.020,-1.310
-2.420,5.820,-0.560
-1.480,1.060,-7.750
3.220,-10.710,-3.070
3.220,-10.710,-3.070
3.220,-10.710,-3.070
1.290,-7.870,-2.000
1.290,-7.870,-2.000
1.290,-7.870,-2.000
1.290,-7.870,-2.000
1.290,-7.870,-2.000
1.290,-7.870,-2.000
-0.470,-4.630,-1.160
-0.470,-4.630,-1.160
-0.470,-4.630,-1.160
-0.470,-4.630,-1.160
-1.830,-1.580,-0.540
-1.830,-1.580,-0.540
-1.830,-1.580,-0.540
-1.830,-1.580,-0.540
-2.620,1.510,0.210
-2.620,1.510,0.210
-2.620,1.510,0.210
-1.980,1.200,0.200
-1.980,1.200,0.200
-1.980,1.200,0.200
-1.980,1.200,0.200
-1.980,1.200,0.200
-1.980,1.200,0.200
-0.920,-0.230,-0.040
-0.920,-0.230,-0.040
-0.920,-0.230,-0.040
-0.920,-0.230,-0.040
-0.920,-0.230,-0.040
1.080,-4.730,-0.590
1.080,-4.730,-0.590
,,,
-5.610,7.210,-14.470
-0.480,0.600,-0.250
0.410,1.420,-0.150
-0.160,6.610,-1.220
4.400,2.200,-24.500
-0.600,1.700,0.020
0.590,5.730,-1.290
-1.030,4.580,-7.300
-0.390,7.550,-3.110
-3.120,-3.440,-3.600
-2.160,-2.810,-6.400
-0.360,-3.410,-11.270
-0.330,5.020,-1.310
-2.420,5.820,-0.560
-1.480,1.060,-7.750
-1.660,4.880,-1.620
-3.280,3.700,-5.990
1.560,-6.520,-9.610
1.560,-6.520,-9.610
2.490,-7.590,-9.250
2.490,-7.590,-9.250
2.490,-7.590,-9.250
3.340,-8.260,-8.390
3.340,-8.260,-8.390
3.340,-8.260,-8.390
3.340,-8.260,-8.390
3.830,-8.680,-6.130
3.830,-8.680,-6.130
3.830,-8.680,-6.130
3.830,-8.680,-6.130
3.830,-8.680,-6.130
3.830,-8.680,-6.130
3.250,-7.910,-5.290
3.250,-7.910,-5.290
3.250,-7.910,-5.290
3.250,-7.910,-5.290
3.250,-7.910,-5.290
2.460,-6.730,-4.520
2.460,-6.730,-4.520
2.460,-6.730,-4.520
2.460,-6.730,-4.520
1.700,-5.020,-3.550
1.700,-5.020,-3.550
1.700,-5.020,-3.550
1.700,-5.020,-3.550
-1.100,-0.720,-1.170
-1.100,-0.720,-1.170
-1.100,-0.720,-1.170
-1.100,-0.720,-1.170
-2.170,0.980,-0.430
,,,
-0.480,0.600,-0.250
0.410,1.420,-0.150
-0.160,6.610,-1.220
4.400,2.200,-24.500
-0.600,1.700,0.020
0.590,5.730,-1.290
-1.030,4.580,-7.300
-0.390,7.550,-3.110
-3.120,-3.440,-3.600
-2.160,-2.810,-6.400
-0.360,-3.410,-11.270
-0.330,5.020,-1.310
-2.420,5.820,-0.560
-1.480,1.060,-7.750
-1.660,4.880,-1.620
-3.280,3.700,-5.990
0.070,6.480,-3.060
-0.690,10.510,-5.600
-0.690,10.510,-5.600
-0.690,10.510,-5.600
-0.690,10.510,-5.600
-0.690,10.510,-5.600
-0.750,9.950,-6.380
-0.750,9.950,-6.380
-0.750,9.950,-6.380
-0.750,9.950,-6.380
-0.750,9.950,-6.380
-0.800,7.600,-7.010
-0.800,7.600,-7.010
-0.800,7.600,-7.010
-0.800,7.600,-7.010
-1.450,5.740,-7.780
-1.450,5.740,-7.780
-1.450,5.740,-7.780
-1.450,5.740,-7.780
-2.830,3.700,-8.440
-2.830,3.700,-8.440
-2.830,3.700,-8.440
-2.830,3.700,-8.440
-5.240,0.490,-8.560
-5.240,0.490,-8.560
-5.240,0.490,-8.560
-5.240,0.490,-8.560
-5.240,0.490,-8.560
-5.240,0.490,-8.560
-4.990,-0.890,-9.590
-4.990,-0.890,-9.590
-4.990,-0.890,-9.590
-4.990,-0.890,-9.590
-4.990,-0.890,-9.590
,,,
0.410,1.420,-0.150
-0.160,6.610,-1.220
4.400,2.200,-24.500
-0.600,1.700,0.020
0.590,5.730,-1.290
-1.030,4.580,-7.300
-0.390,7.550,-3.110
-3.120,-3.440,-3.600
-2.160,-2.810,-6.400
-0.360,-3.410,-11.270
-0.330,5.020,-1.310
-2.420,5.820,-0.560
-1.480,1.060,-7.750
-1.660,4.880,-1.620
-3.280,3.700,-5.990
0.070,6.480,-3.060
-0.190,-6.100,-4.790
0.010,-2.380,-8.600
0.010,-2.380,-8.600
0.010,-2.380,-8.600
0.010,-2.380,-8.600
-1.120,-0.610,-7.750
-1.120,-0.610,-7.750
-1.120,-0.610,-7.750
-1.120,-0.610,-7.750
-0.810,0.790,-6.810
-0.810,0.790,-6.810
-0.810,0.790,-6.810
-0.810,0.790,-6.810
-0.320,1.890,-6.110
-0.320,1.890,-6.110
-0.320,1.890,-6.110
-0.320,1.890,-6.110
-0.320,1.890,-6.110
-0.320,1.890,-6.110
-0.980,3.720,-5.790
-0.980,3.720,-5.790
-0.980,3.720,-5.790
-0.980,3.720,-5.790
-0.980,3.720,-5.790
-0.950,5.640,-5.590
-0.950,5.640,-5.590
-0.950,5.640,-5.590
-0.950,5.640,-5.590
-0.480,8.100,-5.080
-0.480,8.100,-5.080
-0.480,8.100,-5.080
-0.480,8.100,-5.080
-1.030,10.130,-4.420
-1.030,10.130,-4.420
,,,
-0.160,6.610,-1.220
4.400,2.200,-24.500
-0.600,1.700,0.020
0.590,5.730,-1.290
-1.030,4.580,-7.300
-0.390,7.550,-3.110
-3.120,-3.440,-3.600
-2.160,-2.810,-6.400
-0.360,-3.410,-11.270
-0.330,5.020,-1.310
-2.420,5.820,-0.560
-1.480,1.060,-7.750
-1.660,4.880,-1.620
-3.280,3.700,-5.990
0.070,6.480,-3.060
-0.190,-6.100,-4.790
-0.800,-8.480,2.430
0.740,-6.890,-0.360
0.740,-6.890,-0.360
0.440,-6.400,-1.550
0.440,-6.400,-1.550
0.440,-6.400,-1.550
0.440,-6.400,-1.550
0.440,-6.400,-1.550
0.440,-6.400,-1.550
0.160,-6.280,-1.950
0.160,-6.280,-1.950
0.160,-6.280,-1.950
0.160,-6.280,-1.950
0.160,-6.280,-1.950
-0.250,-6.290,-2.310
-0.250,-6.290,-2.310
-0.250,-6.290,-2.310
-0.250,-6.290,-2.310
-1.240,-5.850,-3.150
-1.240,-5.850,-3.150
-1.240,-5.850,-3.150
-1.240,-5.850,-3.150
-1.370,-6.120,-3.440
-1.370,-6.120,-3.440
-1.370,-6.120,-3.440
-1.370,-6.120,-3.440
-1.290,-6.760,-3.850
-1.290,-6.760,-3.850
-1.290,-6.760,-3.850
-1.290,-6.760,-3.850
-1.290,-6.760,-3.850
-1.570,-6.940,-4.880
-1.570,-6.940,-4.880
-1.570,-6.940,-4.880
,,,
4.400,2.200,-24.500
-0.600,1.700,0.020
0.590,5.730,-1.290
-1.030,4.580,-7.300
-0.390,7.550,-3.110
-3.120,-3.440,-3.600
-2.160,-2.810,-6.400
-0.360,-3.410,-11.270
-0.330,5.020,-1.310
-2.420,5.820,-0.560
-1.480,1.060,-7.750
-1.660,4.880,-1.620
-3.280,3.700,-5.990
0.070,6.480,-3.060
-0.190,-6.100,-4.790
-0.800,-8.480,2.430
0.410,-4.020,-9.870
-0.430,-7.330,-6.750
-0.430,-7.330,-6.750
-0.430,-7.330,-6.750
-0.320,-6.810,-6.030
-0.320,-6.810,-6.030
-0.320,-6.810,-6.030
-0.320,-6.810,-6.030
-0.240,-6.240,-5.050
-0.240,-6.240,-5.050
-0.240,-6.240,-5.050
-0.240,-6.240,-5.050
-0.140,-5.420,-2.420
-0.140,-5.420,-2.420
-0.140,-5.420,-2.420
-0.140,-5.420,-2.420
-0.380,-5.260,-0.820
-0.380,-5.260,-0.820
-0.380,-5.260,-0.820
-0.380,-5.260,-0.820
-0.380,-5.260,-0.820
-0.900,-5.680,1.030
-0.900,-5.680,1.030
-0.900,-5.680,1.030
-0.900,-5.680,1.030
-0.900,-5.680,1.030
-0.900,-5.680,1.030
-1.550,-6.490,2.920
-1.550,-6.490,2.920
-1.550,-6.490,2.920
-1.550,-6.490,2.920
-3.300,-9.380,5.640
-3.300,-9.380,5.640
-3.300,-9.380,5.640
,,,
-2.160,-2.810,-6.400
-0.360,-3.410,-11.270
-0.330,5.020,-1.310
-2.420,5.820,-0.560
-1.480,1.060,-7.750
-1.660,4.880,-1.620
-3.280,3.700,-5.990
0.070,6.480,-3.060
-0.190,-6.100,-4.790
-0.800,-8.480,2.430
0.410,-4.020,-9.870
-0.920,-1.040,-0.750
0.620,-1.310,-1.810
0.230,-1.950,-1.000
0.050,-1.770,-2.220
-0.850,-1.910,-1.290
1.080,-5.140,-3.140
-0.200,-15.090,-11.350
-0.200,-15.090,-11.350
-0.200,-15.090,-11.350
-0.200,-15.090,-11.350
-0.200,-15.090,-11.350
-5.380,-11.910,-15.830
-5.380,-11.910,-15.830
-5.380,-11.910,-15.830
-5.380,-11.910,-15.830
-5.380,-11.910,-15.830
-5.380,-11.910,-15.830
-7.810,-9.500,-17.820
-7.810,-9.500,-17.820
-7.810,-9.500,-17.820
-7.810,-9.500,-17.820
-9.450,-6.480,-18.590
-9.450,-6.480,-18.590
-9.450,-6.480,-18.590
-9.450,-6.480,-18.590
-11.180,3.280,-18.910
-11.180,3.280,-18.910
-11.180,3.280,-18.910
-11.180,3.280,-18.910
-9.480,7.730,-17.160
-9.480,7.730,-17.160
-9.480,7.730,-17.160
-9.480,7.730,-17.160
-9.480,7.730,-17.160
-6.650,12.660,-14.280
-6.650,12.660,-14.280
-6.650,12.660,-14.280
-6.650,12.660,-14.280
-6.650,12.660,-14.280
,,,
-2.420,5.820,-0.560
-1.480,1.060,-7.750
-1.660,4.880,-1.620
-3.280,3.700,-5.990
0.070,6.480,-3.060
-0.190,-6.100,-4.790
-0.800,-8.480,2.430
0.410,-4.020,-9.870
-0.920,-1.040,-0.750
0.620,-1.310,-1.810
0.230,-1.950,-1.000
0.050,-1.770,-2.220
-0.850,-1.910,-1.290
1.080,-5.140,-3.140
-0.860,-1.160,-4.900
-0.550,7.410,0.700
0.130,1.590,-10.060
-0.750,-2.490,1.110
-0.750,-2.490,1.110
-0.750,-2.490,1.110
-0.750,-0.280,1.370
-0.750,-0.280,1.370
-0.750,-0.280,1.370
-0.750,-0.280,1.370
-0.680,1.280,1.550
-0.680,1.280,1.550
-0.680,1.280,1.550
-0.680,1.280,1.550
-0.580,2.930,1.710
-0.580,2.930,1.710
-0.580,2.930,1.710
-0.580,2.930,1.710
-0.580,2.930,1.710
-0.770,3.080,1.710
-0.770,3.080,1.710
-0.770,3.080,1.710
-0.770,3.080,1.710
-0.770,3.080,1.710
-0.770,3.080,1.710
-0.720,2.710,1.650
-0.720,2.710,1.650
-0.720,2.710,1.650
-0.720,2.710,1.650
-0.680,1.920,1.520
-0.680,1.920,1.520
-0.680,1.920,1.520
-0.680,1.920,1.520
-0.300,-0.390,1.170
-0.300,-0.390,1.170
-0.300,-0.390,1.170
,,,
-1.480,1.060,-7.750
-1.660,4.880,-1.620
-3.280,3.700,-5.990
0.070,6.480,-3.060
-0.190,-6.100,-4.790
-0.800,-8.480,2.430
0.410,-4.020,-9.870
-0.920,-1.040,-0.750
0.620,-1.310,-1.810
0.230,-1.950,-1.000
0.050,-1.770,-2.220
-0.850,-1.910,-1.290
1.080,-5.140,-3.140
-0.860,-1.160,-4.900
-0.550,7.410,0.700
0.130,1.590,-10.060
-1.750,0.330,-17.510
-2.000,3.310,3.210
-2.000,3.310,3.210
-2.000,3.310,3.210
-2.000,3.310,3.210
-2.000,3.310,3.210
-2.000,3.310,3.210
0.970,-0.500,2.290
0.970,-0.500,2.290
0.970,-0.500,2.290
0.970,-0.500,2.290
0.970,-0.500,2.290
6.000,-9.560,0.490
6.000,-9.560,0.490
6.000,-9.560,0.490
6.000,-9.560,0.490
7.510,-12.600,-0.360
7.510,-12.600,-0.360
7.510,-12.600,-0.360
7.510,-12.600,-0.360
8.020,-13.560,-1.230
8.020,-13.560,-1.230
8.020,-13.560,-1.230
8.020,-13.560,-1.230
5.950,-10.080,-3.730
5.950,-10.080,-3.730
5.950,-10.080,-3.730
5.950,-10.080,-3.730
5.950,-10.080,-3.730
4.670,-7.740,-4.820
4.670,-7.740,-4.820
4.670,-7.740,-4.820
4.670,-7.740,-4.820
4.670,-7.740,-4.820
,,,
-1.660,4.880,-1.620
-3.280,3.700,-5.990
0.070,6.480,-3.060
-0.190,-6.100,-4.790
-0.800,-8.480,2.430
0.410,-4.020,-9.870
-0.920,-1.040,-0.750
0.620,-1.310,-1.810
0.230,-1.950,-1.000
0.050,-1.770,-2.220
-0.850,-1.910,-1.290
1.080,-5.140,-3.140
-0.860,-1.160,-4.900
-0.550,7.410,0.700
0.130,1.590,-10.060
-1.750,0.330,-17.510
-1.190,0.530,-7.950
-2.160,7.640,-0.070
-2.700,8.390,0.650
-2.700,8.390,0.650
-2.700,8.390,0.650
-2.700,8.390,0.650
-2.930,9.360,1.500
-2.930,9.360,1.500
-2.930,9.360,1.500
-2.930,9.360,1.500
-3.030,9.630,1.850
-3.030,9.630,1.850
-3.030,9.630,1.850
-3.030,9.630,1.850
-3.490,10.220,1.980
-3.490,10.220,1.980
-3.490,10.220,1.980
-3.490,10.220,1.980
-3.490,10.220,1.980
-4.000,11.320,1.950
-4.000,11.320,1.950
-4.000,11.320,1.950
-4.000,11.320,1.950
-4.000,11.320,1.950
-4.000,11.320,1.950
-4.890,13.270,1.670
-4.890,13.270,1.670
-4.890,13.270,1.670
-4.890,13.270,1.670
-4.700,13.690,0.800
-4.700,13.690,0.800
-4.700,13.690,0.800
-4.700,13.690,0.800
-4.490,13.590,-0.100
,,,
-3.280,3.700,-5.990
0.070,6.480,-3.060
-0.190,-6.100,-4.790
-0.800,-8.480,2.430
0.410,-4.020,-9.870
-0.920,-1.040,-0.750
0.620,-1.310,-1.810
0.230,-1.950,-1.000
0.050,-1.770,-2.220
-0.850,-1.910,-1.290
1.080,-5.140,-3.140
-0.860,-1.160,-4.900
-0.550,7.410,0.700
0.130,1.590,-10.060
-1.750,0.330,-17.510
-1.190,0.530,-7.950
3.690,-2.640,-11.010
-0.360,-6.620,3.220
-0.360,-6.620,3.220
-0.360,-6.620,3.220
0.000,-4.700,4.080
0.000,-4.700,4.080
0.000,-4.700,4.080
0.000,-4.700,4.080
0.000,-4.700,4.080
0.000,-4.460,4.350
0.000,-4.460,4.350
0.000,-4.460,4.350
0.000,-4.460,4.350
0.000,-4.460,4.350
0.000,-4.460,4.350
0.420,-4.310,4.540
0.420,-4.310,4.540
0.420,-4.310,4.540
0.420,-4.310,4.540
1.070,-4.970,5.070
1.070,-4.970,5.070
1.070,-4.970,5.070
1.070,-4.970,5.070
1.200,-6.010,5.010
1.200,-6.010,5.010
1.200,-6.010,5.010
1.200,-6.010,5.010
1.580,-6.890,4.830
1.580,-6.890,4.830
1.580,-6.890,4.830
1.580,-6.890,4.830
1.580,-6.890,4.830
2.100,-7.790,3.610
2.100,-7.790,3.610
,,,
0.070,6.480,-3.060
-0.190,-6.100,-4.790
-0.800,-8.480,2.430
0.410,-4.020,-9.870
-0.920,-1.040,-0.750
0.620,-1.310,-1.810
0.230,-1.950,-1.000
0.050,-1.770,-2.220
-0.850,-1.910,-1.290
1.080,-5.140,-3.140
-0.860,-1.160,-4.900
-0.550,7.410,0.700
0.130,1.590,-10.060
-1.750,0.330,-17.510
-1.190,0.530,-7.950
3.690,-2.640,-11.010
1.660,0.480,-12.120
0.420,3.850,-3.070
0.420,3.850,-3.070
0.420,3.850,-3.070
0.420,3.850,-3.070
1.100,1.780,-3.190
1.100,1.780,-3.190
1.100,1.780,-3.190
1.100,1.780,-3.190
0.490,-1.390,-3.160
0.490,-1.390,-3.160
0.490,-1.390,-3.160
0.490,-1.390,-3.160
0.130,-7.020,-2.400
0.130,-7.020,-2.400
0.130,-7.020,-2.400
0.130,-7.020,-2.400
-0.090,-7.220,-1.890
-0.090,-7.220,-1.890
-0.090,-7.220,-1.890
-0.090,-7.220,-1.890
-0.090,-7.220,-1.890
0.400,-6.330,-1.890
0.400,-6.330,-1.890
0.400,-6.330,-1.890
0.400,-6.330,-1.890
0.400,-6.330,-1.890
0.400,-6.330,-1.890
1.300,-4.650,-2.160
1.300,-4.650,-2.160
1.300,-4.650,-2.160
1.300,-4.650,-2.160
1.820,-2.100,-2.560
1.820,-2.100,-2.560
,,,
0.410,-4.020,-9.870
-0.920,-1.040,-0.750
0.620,-1.310,-1.810
0.230,-1.950,-1.000
0.050,-1.770,-2.220
-0.850,-1.910,-1.290
1.080,-5.140,-3.140
-0.860,-1.160,-4.900
-0.550,7.410,0.700
0.130,1.590,-10.060
-1.750,0.330,-17.510
-1.190,0.530,-7.950
3.690,-2.640,-11.010
1.660,0.480,-12.120
-0.720,1.240,-1.830
-0.210,4.400,1.320
-1.290,9.470,-1.480
2.450,-8.270,-3.760
2.450,-8.270,-3.760
2.450,-8.270,-3.760
2.450,-8.270,-3.760
2.440,-8.080,-2.610
2.440,-8.080,-2.610
2.440,-8.080,-2.610
2.440,-8.080,-2.610
2.440,-8.080,-2.610
2.440,-8.080,-2.610
1.690,-7.200,-0.750
1.690,-7.200,-0.750
1.690,-7.200,-0.750
1.690,-7.200,-0.750
1.690,-7.200,-0.750
1.230,-6.890,-0.380
1.230,-6.890,-0.380
1.230,-6.890,-0.380
1.230,-6.890,-0.380
0.970,-6.650,0.020
0.970,-6.650,0.020
0.970,-6.650,0.020
0.970,-6.650,0.020
0.350,-6.030,0.430
0.350,-6.030,0.430
0.350,-6.030,0.430
0.350,-6.030,0.430
0.100,-5.770,0.400
0.100,-5.770,0.400
0.100,-5.770,0.400
0.100,-5.770,0.400
0.100,-5.770,0.400
-0.030,-5.410,0.300
,,,
-0.550,7.410,0.700
0.130,1.590,-10.060
-1.750,0.330,-17.510
-1.190,0.530,-7.950
3.690,-2.640,-11.010
1.660,0.480,-12.120
-0.720,1.240,-1.830
-0.210,4.400,1.320
-1.290,9.470,-1.480
0.090,-0.400,-0.120
-0.120,-0.090,-0.120
-0.150,-0.370,0.010
-0.370,-0.160,-0.060
-0.080,-0.360,-0.140
0.030,-0.850,-1.260
-0.100,-4.730,1.130
-2.260,-2.640,-9.230
-2.070,8.460,-1.680
-2.070,8.460,-1.680
-2.070,8.460,-1.680
-1.770,8.330,-1.300
-1.770,8.330,-1.300
-1.770,8.330,-1.300
-1.770,8.330,-1.300
-1.270,7.930,-0.970
-1.270,7.930,-0.970
-1.270,7.930,-0.970
-1.270,7.930,-0.970
-2.550,6.410,-1.500
-2.550,6.410,-1.500
-2.550,6.410,-1.500
-2.550,6.410,-1.500
-2.550,6.410,-1.500
-2.630,5.800,-1.970
-2.630,5.800,-1.970
-2.630,5.800,-1.970
-2.630,5.800,-1.970
-2.630,5.800,-1.970
-2.630,5.800,-1.970
-2.390,5.820,-2.470
-2.390,5.820,-2.470
-2.390,5.820,-2.470
-2.390,5.820,-2.470
-1.890,6.440,-2.970
-1.890,6.440,-2.970
-1.890,6.440,-2.970
-1.890,6.440,-2.970
-1.170,8.430,-3.170
-1.170,8.430,-3.170
-1.170,8.430,-3.170
,,,
0.130,1.590,-10.060
-1.750,0.330,-17.510
-1.190,0.530,-7.950
3.690,-2.640,-11.010
1.660,0.480,-12.120
-0.720,1.240,-1.830
-0.210,4.400,1.320
-1.290,9.470,-1.480
0.090,-0.400,-0.120
-0.120,-0.090,-0.120
-0.150,-0.370,0.010
-0.370,-0.160,-0.060
-0.080,-0.360,-0.140
0.030,-0.850,-1.260
-0.100,-4.730,1.130
-2.260,-2.640,-9.230
0.550,-5.470,-3.920
-3.520,10.040,-0.810
-3.520,10.040,-0.810
-3.520,10.040,-0.810
-3.520,10.040,-0.810
-3.520,10.040,-0.810
-3.520,10.040,-0.810
-4.940,13.500,0.650
-4.940,13.500,0.650
-4.940,13.500,0.650
-4.940,13.500,0.650
-4.940,13.500,0.650
-6.270,17.240,2.010
-6.270,17.240,2.010
-6.270,17.240,2.010
-6.270,17.240,2.010
-6.270,17.240,2.010
-6.350,16.760,1.760
-6.350,16.760,1.760
-6.350,16.760,1.760
-6.350,16.760,1.760
-6.410,14.660,0.620
-6.410,14.660,0.620
-6.410,14.660,0.620
-5.000,9.360,-3.030
-5.000,9.360,-3.030
-5.000,9.360,-3.030
-5.000,9.360,-3.030
-5.000,9.360,-3.030
-5.000,9.360,-3.030
-2.990,7.470,-4.970
-2.990,7.470,-4.970
-2.990,7.470,-4.970
-2.990,7.470,-4.970
,,,
-1.190,0.530,-7.950
3.690,-2.640,-11.010
1.660,0.480,-12.120
-0.720,1.240,-1.830
-0.210,4.400,1.320
-1.290,9.470,-1.480
0.090,-0.400,-0.120
-0.120,-0.090,-0.120
-0.150,-0.370,0.010
-0.370,-0.160,-0.060
-0.080,-0.360,-0.140
0.030,-0.850,-1.260
-0.100,-4.730,1.130
-2.260,-2.640,-9.230
0.550,-5.470,-3.920
-0.130,-4.320,-0.620
2.220,-2.810,-7.530
-2.440,4.150,0.790
-2.430,4.760,1.230
-2.430,4.760,1.230
-2.430,4.760,1.230
-2.430,4.760,1.230
-1.700,4.500,0.900
-1.700,4.500,0.900
-1.700,4.500,0.900
-0.900,4.340,0.820
-0.900,4.340,0.820
-0.900,4.340,0.820
-0.900,4.340,0.820
-0.490,3.980,0.590
-0.490,3.980,0.590
-0.490,3.980,0.590
-0.490,3.980,0.590
-0.490,3.980,0.590
-0.490,3.980,0.590
-0.180,3.820,0.480
-0.180,3.820,0.480
-0.180,3.820,0.480
-0.180,3.820,0.480
-0.180,3.820,0.480
-0.180,3.820,0.480
-0.310,3.560,0.230
-0.310,3.560,0.230
-0.310,3.560,0.230
-0.310,3.560,0.230
-0.520,3.730,0.110
-0.520,3.730,0.110
-0.520,3.730,0.110
-0.520,3.730,0.110
-0.530,4.000,0.100
,,,
3.690,-2.640,-11.010
1.660,0.480,-12.120
-0.720,1.240,-1.830
-0.210,4.400,1.320
-1.290,9.470,-1.480
0.090,-0.400,-0.120
-0.120,-0.090,-0.120
-0.150,-0.370,0.010
-0.370,-0.160,-0.060
-0.080,-0.360,-0.140
0.030,-0.850,-1.260
-0.100,-4.730,1.130
-2.260,-2.640,-9.230
0.550,-5.470,-3.920
-0.130,-4.320,-0.620
2.220,-2.810,-7.530
2.830,-9.280,1.210
1.800,-0.410,-0.430
1.800,-0.410,-0.430
1.800,-0.410,-0.430
1.590,-0.600,-2.020
1.590,-0.600,-2.020
1.590,-0.600,-2.020
1.590,-0.600,-2.020
1.590,-0.600,-2.020
1.780,-0.340,-2.330
1.780,-0.340,-2.330
1.780,-0.340,-2.330
1.780,-0.340,-2.330
1.780,-0.340,-2.330
1.780,-0.340,-2.330
2.160,-0.850,-2.560
2.160,-0.850,-2.560
2.160,-0.850,-2.560
2.160,-0.850,-2.560
2.010,0.070,-3.360
2.010,0.070,-3.360
2.010,0.070,-3.360
2.010,0.070,-3.360
1.580,0.490,-2.880
1.580,0.490,-2.880
1.580,0.490,-2.880
1.580,0.490,-2.880
1.090,0.620,-2.280
1.090,0.620,-2.280
1.090,0.620,-2.280
1.090,0.620,-2.280
1.090,0.620,-2.280
0.390,1.550,-1.330
0.390,1.550,-1.330
,,,
-0.720,1.240,-1.830
-0.210,4.400,1.320
-1.290,9.470,-1.480
0.090,-0.400,-0.120
-0.120,-0.090,-0.120
-0.150,-0.370,0.010
-0.370,-0.160,-0.060
-0.080,-0.360,-0.140
0.030,-0.850,-1.260
-0.100,-4.730,1.130
-2.260,-2.640,-9.230
0.550,-5.470,-3.920
-0.130,-4.320,-0.620
2.220,-2.810,-7.530
2.830,-9.280,1.210
-0.040,-1.150,1.260
-1.020,-4.550,-5.060
-0.530,-5.290,-7.130
-0.530,-5.290,-7.130
-0.530,-5.290,-7.130
-0.650,-4.710,-6.940
-0.650,-4.710,-6.940
-0.650,-4.710,-6.940
-0.650,-4.710,-6.940
-0.680,-4.080,-6.600
-0.680,-4.080,-6.600
-0.680,-4.080,-6.600
-0.680,-4.080,-6.600
-1.430,-2.940,-5.980
-1.430,-2.940,-5.980
-1.430,-2.940,-5.980
-1.430,-2.940,-5.980
-1.710,-2.640,-5.700
-1.710,-2.640,-5.700
-1.710,-2.640,-5.700
-1.710,-2.640,-5.700
-1.710,-2.640,-5.700
-2.120,-2.520,-5.310
-2.120,-2.520,-5.310
-2.120,-2.520,-5.310
-2.120,-2.520,-5.310
-2.120,-2.520,-5.310
-2.120,-2.520,-5.310
-2.670,-2.780,-5.120
-2.670,-2.780,-5.120
-2.670,-2.780,-5.120
-2.670,-2.780,-5.120
-2.780,-4.050,-5.090
-2.780,-4.050,-5.090
-2.780,-4.050,-5.090
,,,
-0.210,4.400,1.320
-1.290,9.470,-1.480
0.090,-0.400,-0.120
-0.120,-0.090,-0.120
-0.150,-0.370,0.010
-0.370,-0.160,-0.060
-0.080,-0.360,-0.140
0.030,-0.850,-1.260
-0.100,-4.730,1.130
-2.260,-2.640,-9.230
0.550,-5.470,-3.920
-0.130,-4.320,-0.620
2.220,-2.810,-7.530
2.830,-9.280,1.210
-0.040,-1.150,1.260
-1.020,-4.550,-5.060
0.370,1.360,8.910
-0.060,-3.720,12.220
-0.060,-3.720,12.220
-0.060,-3.720,12.220
-0.060,-3.720,12.220
-0.190,-3.530,12.380
-0.190,-3.530,12.380
-0.190,-3.530,12.380
-0.190,-3.530,12.380
-0.190,-3.530,12.380
-0.190,-3.530,12.380
-1.780,-3.030,11.970
-1.780,-3.030,11.970
-1.780,-3.030,11.970
-1.780,-3.030,11.970
-1.780,-3.030,11.970
-1.350,-2.640,11.720
-1.350,-2.640,11.720
-1.350,-2.640,11.720
-1.350,-2.640,11.720
-1.230,-2.820,11.270
-1.230,-2.820,11.270
-1.230,-2.820,11.270
-1.230,-2.820,11.270
-2.700,-4.000,10.130
-2.700,-4.000,10.130
-2.700,-4.000,10.130
-2.700,-4.000,10.130
-3.150,-4.110,9.440
-3.150,-4.110,9.440
-3.150,-4.110,9.440
-3.150,-4.110,9.440
-3.150,-4.110,9.440
-3.190,-4.440,8.660
,,,
-0.120,-0.090,-0.120
-0.150,-0.370,0.010
-0.370,-0.160,-0.060
-0.080,-0.360,-0.140
0.030,-0.850,-1.260
-0.100,-4.730,1.130
-2.260,-2.640,-9.230
0.550,-5.470,-3.920
-0.130,-4.320,-0.620
2.220,-2.810,-7.530
2.830,-9.280,1.210
-0.040,-1.150,1.260
-1.020,-4.550,-5.060
0.370,1.360,8.910
0.360,-0.990,4.010
0.080,-1.120,2.230
0.180,-2.290,7.630
-7.030,-4.620,16.320
-7.030,-4.620,16.320
-7.030,-4.620,16.320
-7.030,-4.620,16.320
-8.600,-4.910,12.490
-8.600,-4.910,12.490
-8.600,-4.910,12.490
-9.330,-5.040,9.990
-9.330,-5.040,9.990
-9.330,-5.040,9.990
-9.330,-5.040,9.990
-10.030,-4.950,7.250
-10.030,-4.950,7.250
-10.030,-4.950,7.250
-10.030,-4.950,7.250
-11.820,-3.430,0.420
-11.820,-3.430,0.420
-11.820,-3.430,0.420
-11.820,-3.430,0.420
-11.820,-3.430,0.420
-11.820,-3.430,0.420
-11.640,-1.990,-3.220
-11.640,-1.990,-3.220
-11.640,-1.990,-3.220
-11.640,-1.990,-3.220
-11.640,-1.990,-3.220
-11.340,0.240,-6.750
-11.340,0.240,-6.750
-11.340,0.240,-6.750
-11.340,0.240,-6.750
-10.630,3.330,-9.620
-10.630,3.330,-9.620
-10.630,3.330,-9.620
,,,
0.030,-0.850,-1.260
-0.100,-4.730,1.130
-2.260,-2.640,-9.230
0.550,-5.470,-3.920
-0.130,-4.320,-0.620
2.220,-2.810,-7.530
2.830,-9.280,1.210
-0.040,-1.150,1.260
-1.020,-4.550,-5.060
0.370,1.360,8.910
0.360,-0.990,4.010
0.080,-1.120,2.230
0.180,-2.290,7.630
0.990,-2.420,0.790
0.440,-3.430,1.300
0.740,-2.450,5.200
-2.390,-3.150,19.490
-3.500,4.000,-5.770
-3.500,4.000,-5.770
-3.800,5.630,-7.700
-3.800,5.630,-7.700
-3.800,5.630,-7.700
-3.800,5.630,-7.700
-3.800,5.630,-7.700
-3.670,6.820,-9.440
-3.670,6.820,-9.440
-3.670,6.820,-9.440
-3.670,6.820,-9.440
-3.670,6.820,-9.440
-3.670,6.820,-9.440
-3.000,5.780,-11.410
-3.000,5.780,-11.410
-3.000,5.780,-11.410
-3.000,5.780,-11.410
-3.130,3.880,-12.040
-3.130,3.880,-12.040
-3.130,3.880,-12.040
-3.130,3.880,-12.040
-3.560,1.730,-12.300
-3.560,1.730,-12.300
-3.560,1.730,-12.300
-3.560,1.730,-12.300
-3.680,-1.390,-11.990
-3.680,-1.390,-11.990
-3.680,-1.390,-11.990
-3.680,-1.390,-11.990
-3.680,-1.390,-11.990
-3.530,-1.950,-11.310
-3.530,-1.950,-11.310
-3.530,-1.950,-11.310
,,,
-0.130,-4.320,-0.620
2.220,-2.810,-7.530
2.830,-9.280,1.210
-0.040,-1.150,1.260
-1.020,-4.550,-5.060
0.370,1.360,8.910
0.360,-0.990,4.010
0.080,-1.120,2.230
0.180,-2.290,7.630
0.990,-2.420,0.790
0.440,-3.430,1.300
0.740,-2.450,5.200
-2.390,-3.150,19.490
0.200,-1.230,1.740
-0.350,-1.730,4.530
-0.170,-1.430,7.280
-4.970,-3.100,10.610
-2.040,1.490,-6.410
-1.690,1.950,-7.360
-1.690,1.950,-7.360
-1.690,1.950,-7.360
-0.940,1.480,-9.080
-0.940,1.480,-9.080
-0.940,1.480,-9.080
-0.940,1.480,-9.080
-0.670,0.920,-9.480
-0.670,0.920,-9.480
-0.670,0.920,-9.480
-0.670,0.920,-9.480
-0.970,0.480,-9.720
-0.970,0.480,-9.720
-0.970,0.480,-9.720
-0.970,0.480,-9.720
-0.970,0.480,-9.720
-1.120,-0.180,-9.700
-1.120,-0.180,-9.700
-1.120,-0.180,-9.700
-1.120,-0.180,-9.700
-1.120,-0.180,-9.700
-1.120,-0.180,-9.700
-1.720,-1.810,-9.630
-1.720,-1.810,-9.630
-1.720,-1.810,-9.630
-1.720,-1.810,-9.630
-2.020,-2.360,-9.610
-2.020,-2.360,-9.610
-2.020,-2.360,-9.610
-2.020,-2.360,-9.610
-2.130,-2.800,-9.540
-2.130,-2.800,-9.540
,,,
2.830,-9.280,1.210
-0.040,-1.150,1.260
-1.020,-4.550,-5.060
0.370,1.360,8.910
0.360,-0.990,4.010
0.080,-1.120,2.230
0.180,-2.290,7.630
0.990,-2.420,0.790
0.440,-3.430,1.300
0.740,-2.450,5.200
-2.390,-3.150,19.490
0.200,-1.230,1.740
-0.350,-1.730,4.530
-0.170,-1.430,7.280
-4.970,-3.100,10.610
-0.260,-1.560,1.090
-1.210,-0.550,7.320
-3.860,-2.680,9.280
-3.650,-2.400,7.040
-3.650,-2.400,7.040
-3.650,-2.400,7.040
-3.650,-2.400,7.040
-3.650,-2.400,7.040
-3.640,-2.570,5.710
-3.640,-2.570,5.710
-3.640,-2.570,5.710
-3.640,-2.570,5.710
-3.640,-2.570,5.710
-3.640,-2.570,5.710
-3.440,-2.600,4.370
-3.440,-2.600,4.370
-3.440,-2.600,4.370
-3.440,-2.600,4.370
-2.870,-2.220,1.690
-2.870,-2.220,1.690
-2.870,-2.220,1.690
-2.870,-2.220,1.690
-3.010,-2.100,0.340
-3.010,-2.100,0.340
-3.010,-2.100,0.340
-3.010,-2.100,0.340
-2.980,-1.910,-0.860
-2.980,-1.910,-0.860
-2.980,-1.910,-0.860
-2.980,-1.910,-0.860
-2.980,-1.910,-0.860
-2.700,-1.300,-2.950
-2.700,-1.300,-2.950
-2.700,-1.300,-2.950
-2.700,-1.300,-2.950
,,,
0.370,1.360,8.910
0.360,-0.990,4.010
0.080,-1.120,2.230
0.180,-2.290,7.630
0.990,-2.420,0.790
0.440,-3.430,1.300
0.740,-2.450,5.200
-2.390,-3.150,19.490
0.200,-1.230,1.740
-0.350,-1.730,4.530
-0.170,-1.430,7.280
-4.970,-3.100,10.610
-0.260,-1.560,1.090
-1.210,-0.550,7.320
-0.130,-1.780,2.390
0.170,-0.590,1.650
-2.390,-2.040,11.700
-3.360,-1.070,2.520
-2.980,-0.570,1.130
-2.980,-0.570,1.130
-2.980,-0.570,1.130
-2.630,-0.320,-0.260
-2.630,-0.320,-0.260
-2.630,-0.320,-0.260
-2.630,-0.320,-0.260
-1.680,-0.350,-2.640
-1.680,-0.350,-2.640
-1.680,-0.350,-2.640
-1.680,-0.350,-2.640
-1.630,-0.700,-3.570
-1.630,-0.700,-3.570
-1.630,-0.700,-3.570
-1.630,-0.700,-3.570
-1.630,-0.700,-3.570
-1.630,-0.700,-3.570
-1.570,-1.120,-4.440
-1.570,-1.120,-4.440
-1.570,-1.120,-4.440
-1.570,-1.120,-4.440
-1.570,-1.120,-4.440
-1.380,-1.740,-5.180
-1.380,-1.740,-5.180
-1.380,-1.740,-5.180
-1.380,-1.740,-5.180
-0.780,-2.590,-6.690
-0.780,-2.590,-6.690
-0.780,-2.590,-6.690
-0.780,-2.590,-6.690
-0.620,-2.630,-7.170
-0.620,-2.630,-7.170
,,,
0.080,-1.120,2.230
0.180,-2.290,7.630
0.990,-2.420,0.790
0.440,-3.430,1.300
0.740,-2.450,5.200
-2.390,-3.150,19.490
0.200,-1.230,1.740
-0.350,-1.730,4.530
-0.170,-1.430,7.280
-4.970,-3.100,10.610
-0.260,-1.560,1.090
-1.210,-0.550,7.320
-0.130,-1.780,2.390
0.170,-0.590,1.650
-2.390,-2.040,11.700
-0.560,-0.100,5.270
-0.740,-0.380,10.450
-2.190,-2.180,4.160
-2.190,-2.180,4.160
-2.620,-1.880,3.060
-2.620,-1.880,3.060
-2.620,-1.880,3.060
-2.620,-1.880,3.060
-2.620,-1.880,3.060
-2.790,-1.040,0.950
-2.790,-1.040,0.950
-2.790,-1.040,0.950
-2.790,-1.040,0.950
-2.790,-1.040,0.950
-2.790,-1.040,0.950
-3.020,-0.850,-0.240
-3.020,-0.850,-0.240
-3.020,-0.850,-0.240
-3.020,-0.850,-0.240
-3.140,-0.770,-1.510
-3.140,-0.770,-1.510
-3.140,-0.770,-1.510
-3.260,-0.600,-3.720
-3.260,-0.600,-3.720
-3.260,-0.600,-3.720
-3.260,-0.600,-3.720
-3.040,-0.550,-4.570
-3.040,-0.550,-4.570
-3.040,-0.550,-4.570
-3.040,-0.550,-4.570
-3.040,-0.550,-4.570
-3.040,-0.550,-4.570
-2.870,-0.640,-5.420
-2.870,-0.640,-5.420
-2.870,-0.640,-5.420
,,,
0.990,-2.420,0.790
0.440,-3.430,1.300
0.740,-2.450,5.200
-2.390,-3.150,19.490
0.200,-1.230,1.740
-0.350,-1.730,4.530
-0.170,-1.430,7.280
-4.970,-3.100,10.610
-0.260,-1.560,1.090
-1.210,-0.550,7.320
-0.130,-1.780,2.390
0.170,-0.590,1.650
-2.390,-2.040,11.700
-0.560,-0.100,5.270
-0.740,-0.380,10.450
0.150,-1.970,2.440
1.120,3.120,15.800
-2.550,0.580,-2.650
-2.550,0.580,-2.650
-1.180,3.480,-6.550
-1.180,3.480,-6.550
-1.180,3.480,-6.550
-1.180,3.480,-6.550
-0.800,4.080,-8.120
-0.800,4.080,-8.120
-0.800,4.080,-8.120
-0.800,4.080,-8.120
-1.010,3.930,-9.370
-1.010,3.930,-9.370
-1.010,3.930,-9.370
-0.180,2.490,-9.980
-0.180,2.490,-9.980
-0.180,2.490,-9.980
-0.180,2.490,-9.980
-0.180,2.490,-9.980
-0.180,2.490,-9.980
-0.410,1.830,-9.370
-0.410,1.830,-9.370
-0.410,1.830,-9.370
-0.410,1.830,-9.370
-0.410,1.830,-9.370
-0.410,1.830,-9.370
-1.480,1.000,-8.810
-1.480,1.000,-8.810
-1.480,1.000,-8.810
-2.150,-0.350,-8.520
-2.150,-0.350,-8.520
-2.150,-0.350,-8.520
-2.150,-0.350,-8.520
-1.490,-2.970,-8.190
,,,
0.740,-2.450,5.200
-2.390,-3.150,19.490
0.200,-1.230,1.740
-0.350,-1.730,4.530
-0.170,-1.430,7.280
-4.970,-3.100,10.610
-0.260,-1.560,1.090
-1.210,-0.550,7.320
-0.130,-1.780,2.390
0.170,-0.590,1.650
-2.390,-2.040,11.700
-0.560,-0.100,5.270
-0.740,-0.380,10.450
0.150,-1.970,2.440
1.120,3.120,15.800
0.140,-0.910,0.960
-3.080,2.210,12.580
-3.820,-6.460,6.190
-3.820,-6.460,6.190
-3.650,-5.990,3.970
-3.650,-5.990,3.970
-3.650,-5.990,3.970
-3.650,-5.990,3.970
-3.650,-5.990,3.970
-3.650,-5.990,3.970
-3.120,-5.410,1.870
-3.120,-5.410,1.870
-3.120,-5.410,1.870
-3.120,-5.410,1.870
-3.120,-5.410,1.870
-2.010,-3.660,-2.150
-2.010,-3.660,-2.150
-2.010,-3.660,-2.150
-2.010,-3.660,-2.150
-2.010,-3.660,-2.150
-1.690,-2.750,-3.970
-1.690,-2.750,-3.970
-1.690,-2.750,-3.970
-0.950,-1.510,-5.600
-0.950,-1.510,-5.600
-0.950,-1.510,-5.600
-0.950,-1.510,-5.600
-0.840,0.350,-8.120
-0.840,0.350,-8.120
-0.840,0.350,-8.120
-0.840,0.350,-8.120
-0.840,0.350,-8.120
-0.840,0.350,-8.120
-0.740,0.770,-8.780
-0.740,0.770,-8.780
,,,
1.120,3.120,15.800
0.140,-0.910,0.960
-3.080,2.210,12.580
-0.820,-3.830,-0.040
-2.460,-3.040,1.010
0.020,1.160,-1.210
3.240,1.090,-1.800
-0.300,1.390,0.610
-2.160,-1.290,1.090
0.790,-0.120,-2.660
-0.860,1.780,2.260
-3.180,-1.320,-0.110
2.350,0.850,-3.080
0.400,3.890,4.030
-3.720,-2.070,-0.690
-2.030,-1.240,1.690
4.690,5.290,4.440
-2.990,-2.910,-0.250
-2.990,-2.910,-0.250
-2.990,-2.910,-0.250
-4.020,-2.660,1.090
-4.020,-2.660,1.090
-4.020,-2.660,1.090
-4.020,-2.660,1.090
-4.020,-2.660,1.090
-4.020,-2.660,1.090
-3.710,-1.210,0.960
-3.710,-1.210,0.960
-3.710,-1.210,0.960
-3.710,-1.210,0.960
-3.710,-1.210,0.960
-3.670,-1.900,1.400
-3.670,-1.900,1.400
-3.670,-1.900,1.400
-3.670,-1.900,1.400
-3.670,-1.900,1.400
-4.080,-2.200,0.970
-4.080,-2.200,0.970
-4.080,-2.200,0.970
-4.080,-2.200,0.970
-4.630,-2.570,0.600
-4.630,-2.570,0.600
-4.630,-2.570,0.600
-4.630,-2.570,0.600
-5.010,-2.830,1.810
-5.010,-2.830,1.810
-5.010,-2.830,1.810
-5.010,-2.830,1.810
-5.010,-2.830,1.810
-5.180,-2.510,1.760
,,,
0.140,-0.910,0.960
-3.080,2.210,12.580
-0.820,-3.830,-0.040
-2.460,-3.040,1.010
0.020,1.160,-1.210
3.240,1.090,-1.800
-0.300,1.390,0.610
-2.160,-1.290,1.090
0.790,-0.120,-2.660
-0.860,1.780,2.260
-3.180,-1.320,-0.110
2.350,0.850,-3.080
0.400,3.890,4.030
-3.720,-2.070,-0.690
-2.030,-1.240,1.690
4.690,5.290,4.440
-6.280,-2.010,-0.950
1.690,2.920,1.830
1.690,2.920,1.830
1.690,2.920,1.830
1.690,2.920,1.830
1.690,2.920,1.830
2.930,3.340,2.250
2.930,3.340,2.250
2.930,3.340,2.250
2.930,3.340,2.250
5.140,3.780,3.170
5.140,3.780,3.170
5.140,3.780,3.170
5.140,3.780,3.170
5.990,3.880,3.640
5.990,3.880,3.640
5.990,3.880,3.640
5.990,3.880,3.640
6.450,4.040,4.150
6.450,4.040,4.150
6.450,4.040,4.150
6.450,4.040,4.150
6.450,4.040,4.150
6.060,3.980,4.830
6.060,3.980,4.830
6.060,3.980,4.830
6.060,3.980,4.830
6.060,3.980,4.830
6.060,3.980,4.830
5.540,3.940,4.780
5.540,3.940,4.780
5.540,3.940,4.780
5.540,3.940,4.780
5.190,3.260,4.300
,,,
2.350,0.850,-3.080
0.400,3.890,4.030
-3.720,-2.070,-0.690
-2.030,-1.240,1.690
4.690,5.290,4.440
-6.280,-2.010,-0.950
0.440,0.590,2.130
-5.150,-2.220,0.040
-0.520,0.680,0.320
3.510,-0.510,3.930
-5.290,-0.730,-0.710
1.260,2.230,2.480
1.460,-0.640,3.060
-6.500,-1.380,0.040
3.280,3.940,1.710
1.950,-1.470,-1.110
-6.370,-3.640,0.460
5.000,3.590,1.990
5.000,3.590,1.990
5.000,3.590,1.990
5.000,3.590,1.990
5.990,3.680,2.840
5.990,3.680,2.840
5.990,3.680,2.840
5.990,3.680,2.840
5.990,3.680,2.840
7.010,4.080,4.200
7.010,4.080,4.200
7.010,4.080,4.200
7.010,4.080,4.200
7.010,4.080,4.200
6.670,3.920,4.860
6.670,3.920,4.860
6.670,3.920,4.860
6.250,3.560,5.930
6.250,3.560,5.930
6.250,3.560,5.930
6.250,3.560,5.930
5.520,1.320,5.210
5.520,1.320,5.210
5.520,1.320,5.210
5.520,1.320,5.210
5.520,1.320,5.210
5.520,1.320,5.210
4.690,0.470,4.780
4.690,0.470,4.780
4.690,0.470,4.780
4.690,0.470,4.780
4.690,0.470,4.780
3.980,-0.060,4.170
,,,
0.400,3.890,4.030
-3.720,-2.070,-0.690
-2.030,-1.240,1.690
4.690,5.290,4.440
-6.280,-2.010,-0.950
0.440,0.590,2.130
-5.150,-2.220,0.040
-0.520,0.680,0.320
3.510,-0.510,3.930
-5.290,-0.730,-0.710
1.260,2.230,2.480
1.460,-0.640,3.060
-6.500,-1.380,0.040
3.280,3.940,1.710
1.950,-1.470,-1.110
-6.370,-3.640,0.460
-3.900,6.530,0.670
3.230,-19.490,8.460
3.230,-19.490,8.460
3.230,-19.490,8.460
3.160,-19.530,7.460
3.160,-19.530,7.460
3.160,-19.530,7.460
3.160,-19.530,7.460
2.790,-18.530,6.620
2.790,-18.530,6.620
2.790,-18.530,6.620
2.790,-18.530,6.620
2.090,-16.660,5.830
2.090,-16.660,5.830
2.090,-16.660,5.830
2.090,-16.660,5.830
2.090,-16.660,5.830
1.440,-14.470,4.860
1.440,-14.470,4.860
1.440,-14.470,4.860
1.440,-14.470,4.860
1.440,-14.470,4.860
1.440,-14.470,4.860
0.610,-9.570,2.720
0.610,-9.570,2.720
0.610,-9.570,2.720
0.610,-9.570,2.720
0.150,-7.080,2.020
0.150,-7.080,2.020
0.150,-7.080,2.020
0.150,-7.080,2.020
0.270,-4.870,1.370
0.270,-4.870,1.370
0.270,-4.870,1.370
,,,
-3.720,-2.070,-0.690
-2.030,-1.240,1.690
4.690,5.290,4.440
-6.280,-2.010,-0.950
0.440,0.590,2.130
-5.150,-2.220,0.040
-0.520,0.680,0.320
3.510,-0.510,3.930
-5.290,-0.730,-0.710
1.260,2.230,2.480
1.460,-0.640,3.060
-6.500,-1.380,0.040
3.280,3.940,1.710
1.950,-1.470,-1.110
-6.370,-3.640,0.460
-3.900,6.530,0.670
-2.950,-6.050,2.390
3.180,-14.940,2.650
3.180,-14.940,2.650
3.180,-14.940,2.650
3.180,-14.940,2.650
3.180,-14.940,2.650
3.180,-14.940,2.650
2.520,-13.140,1.870
2.520,-13.140,1.870
2.520,-13.140,1.870
2.520,-13.140,1.870
2.520,-13.140,1.870
1.700,-11.330,1.170
1.700,-11.330,1.170
1.700,-11.330,1.170
1.700,-11.330,1.170
1.700,-11.330,1.170
0.270,-7.970,0.210
0.270,-7.970,0.210
0.270,-7.970,0.210
-0.360,-6.420,-0.160
-0.360,-6.420,-0.160
-0.360,-6.420,-0.160
-0.360,-6.420,-0.160
-0.750,-4.780,-0.600
-0.750,-4.780,-0.600
-0.750,-4.780,-0.600
-0.750,-4.780,-0.600
-0.750,-4.780,-0.600
-0.750,-4.780,-0.600
-1.870,-1.340,-0.170
-1.870,-1.340,-0.170
-1.870,-1.340,-0.170
-1.870,-1.340,-0.170
,,,
-2.030,-1.240,1.690
4.690,5.290,4.440
-6.280,-2.010,-0.950
0.440,0.590,2.130
-5.150,-2.220,0.040
-0.520,0.680,0.320
3.510,-0.510,3.930
-5.290,-0.730,-0.710
1.260,2.230,2.480
1.460,-0.640,3.060
-6.500,-1.380,0.040
3.280,3.940,1.710
1.950,-1.470,-1.110
-6.370,-3.640,0.460
-3.900,6.530,0.670
-2.950,-6.050,2.390
-3.540,12.070,-1.840
-1.940,-5.410,2.520
-1.940,-5.410,2.520
-1.210,-7.930,3.370
-1.210,-7.930,3.370
-1.210,-7.930,3.370
-0.350,-10.150,4.320
-0.350,-10.150,4.320
-0.350,-10.150,4.320
-0.350,-10.150,4.320
0.710,-13.540,6.500
0.710,-13.540,6.500
0.710,-13.540,6.500
0.710,-13.540,6.500
1.400,-15.070,6.960
1.400,-15.070,6.960
1.400,-15.070,6.960
1.400,-15.070,6.960
1.400,-15.070,6.960
1.400,-15.070,6.960
2.000,-16.130,6.990
2.000,-16.130,6.990
2.000,-16.130,6.990
2.000,-16.130,6.990
2.000,-16.130,6.990
2.330,-16.620,6.820
2.330,-16.620,6.820
2.330,-16.620,6.820
2.330,-16.620,6.820
3.080,-16.310,5.750
3.080,-16.310,5.750
3.080,-16.310,5.750
3.080,-16.310,5.750
3.380,-15.770,5.140
,,,
-6.280,-2.010,-0.950
0.440,0.590,2.130
-5.150,-2.220,0.040
-0.520,0.680,0.320
3.510,-0.510,3.930
-5.290,-0.730,-0.710
1.260,2.230,2.480
1.460,-0.640,3.060
-6.500,-1.380,0.040
3.280,3.940,1.710
1.950,-1.470,-1.110
-6.370,-3.640,0.460
-3.900,6.530,0.670
-2.950,-6.050,2.390
-3.540,12.070,-1.840
-1.700,-0.580,-0.070
-4.080,13.680,-2.000
-3.060,4.050,-2.630
-3.060,4.050,-2.630
-2.860,2.680,-2.060
-2.860,2.680,-2.060
-2.860,2.680,-2.060
-2.860,2.680,-2.060
-2.860,2.680,-2.060
-2.860,2.680,-2.060
-2.030,-0.250,-0.650
-2.030,-0.250,-0.650
-2.030,-0.250,-0.650
-2.030,-0.250,-0.650
-2.030,-0.250,-0.650
-1.670,-1.910,0.040
-1.670,-1.910,0.040
-1.670,-1.910,0.040
-1.670,-1.910,0.040
-2.130,-3.190,1.320
-2.130,-3.190,1.320
-2.130,-3.190,1.320
-2.130,-3.190,1.320
-1.520,-7.180,3.660
-1.520,-7.180,3.660
-1.520,-7.180,3.660
-1.520,-7.180,3.660
-0.750,-9.490,4.770
-0.750,-9.490,4.770
-0.750,-9.490,4.770
-0.750,-9.490,4.770
-0.750,-9.490,4.770
-0.750,-9.490,4.770
0.030,-11.730,5.820
0.030,-11.730,5.820
,,,
0.440,0.590,2.130
-5.150,-2.220,0.040
-0.520,0.680,0.320
3.510,-0.510,3.930
-5.290,-0.730,-0.710
1.260,2.230,2.480
1.460,-0.640,3.060
-6.500,-1.380,0.040
3.280,3.940,1.710
1.950,-1.470,-1.110
-6.370,-3.640,0.460
-3.900,6.530,0.670
-2.950,-6.050,2.390
-3.540,12.070,-1.840
-1.700,-0.580,-0.070
-4.080,13.680,-2.000
5.100,-15.540,5.510
-2.410,-1.090,-0.090
-2.410,-1.090,-0.090
-2.410,-1.090,-0.090
-2.410,-1.090,-0.090
-3.580,1.450,-0.060
-3.580,1.450,-0.060
-3.580,1.450,-0.060
-3.970,2.590,-0.280
-3.970,2.590,-0.280
-3.970,2.590,-0.280
-3.970,2.590,-0.280
-4.020,3.690,-0.690
-4.020,3.690,-0.690
-4.020,3.690,-0.690
-4.020,3.690,-0.690
-4.170,6.190,-0.890
-4.170,6.190,-0.890
-4.170,6.190,-0.890
-4.170,6.190,-0.890
-4.170,6.190,-0.890
-4.170,6.190,-0.890
-3.950,7.370,-1.110
-3.950,7.370,-1.110
-3.950,7.370,-1.110
-3.950,7.370,-1.110
-3.950,7.370,-1.110
-3.990,8.440,-1.250
-3.990,8.440,-1.250
-3.990,8.440,-1.250
-3.990,8.440,-1.250
-3.950,9.310,-1.460
-3.950,9.310,-1.460
-3.950,9.310,-1.460
,,,
-5.150,-2.220,0.040
-0.520,0.680,0.320
3.510,-0.510,3.930
-5.290,-0.730,-0.710
1.260,2.230,2.480
1.460,-0.640,3.060
-6.500,-1.380,0.040
3.280,3.940,1.710
1.950,-1.470,-1.110
-6.370,-3.640,0.460
-3.900,6.530,0.670
-2.950,-6.050,2.390
-3.540,12.070,-1.840
-1.700,-0.580,-0.070
-4.080,13.680,-2.000
5.100,-15.540,5.510
-3.130,10.540,-4.130
-3.700,-2.930,1.030
-3.520,-4.190,2.140
-3.520,-4.190,2.140
-3.520,-4.190,2.140
-3.520,-4.190,2.140
-3.320,-5.560,2.960
-3.320,-5.560,2.960
-3.320,-5.560,2.960
-3.320,-5.560,2.960
-3.320,-5.560,2.960
-2.730,-7.040,3.690
-2.730,-7.040,3.690
-2.730,-7.040,3.690
-2.730,-7.040,3.690
-2.730,-7.040,3.690
-2.730,-7.040,3.690
-0.500,-11.240,5.240
-0.500,-11.240,5.240
-0.500,-11.240,5.240
-0.500,-11.240,5.240
0.880,-13.440,5.860
0.880,-13.440,5.860
0.880,-13.440,5.860
0.880,-13.440,5.860
1.840,-14.980,6.410
1.840,-14.980,6.410
1.840,-14.980,6.410
1.840,-14.980,6.410
3.760,-17.240,7.130
3.760,-17.240,7.130
3.760,-17.240,7.130
3.760,-17.240,7.130
3.760,-17.240,7.130
,,,
-0.520,0.680,0.320
3.510,-0.510,3.930
-5.290,-0.730,-0.710
1.260,2.230,2.480
1.460,-0.640,3.060
-6.500,-1.380,0.040
3.280,3.940,1.710
1.950,-1.470,-1.110
-6.370,-3.640,0.460
-3.900,6.530,0.670
-2.950,-6.050,2.390
-3.540,12.070,-1.840
-1.700,-0.580,-0.070
-4.080,13.680,-2.000
5.100,-15.540,5.510
-3.130,10.540,-4.130
2.840,-13.190,7.720
2.650,-10.140,2.310
1.810,-8.840,1.910
1.810,-8.840,1.910
1.810,-8.840,1.910
1.810,-8.840,1.910
1.810,-8.840,1.910
1.320,-7.920,1.520
1.320,-7.920,1.520
1.320,-7.920,1.520
1.320,-7.920,1.520
0.170,-6.020,1.130
0.170,-6.020,1.130
0.170,-6.020,1.130
0.170,-6.020,1.130
-0.440,-5.270,0.820
-0.440,-5.270,0.820
-0.440,-5.270,0.820
-0.440,-5.270,0.820
-1.080,-4.400,0.750
-1.080,-4.400,0.750
-1.080,-4.400,0.750
-1.080,-4.400,0.750
-1.080,-4.400,0.750
-1.620,-3.150,0.260
-1.620,-3.150,0.260
-1.620,-3.150,0.260
-1.620,-3.150,0.260
-1.620,-3.150,0.260
-1.620,-3.150,0.260
-2.040,-2.160,0.020
-2.040,-2.160,0.020
-2.040,-2.160,0.020
-2.040,-2.160,0.020
,,,
-5.290,-0.730,-0.710
1.260,2.230,2.480
1.460,-0.640,3.060
-6.500,-1.380,0.040
3.280,3.940,1.710
1.950,-1.470,-1.110
-6.370,-3.640,0.460
-3.900,6.530,0.670
-2.950,-6.050,2.390
-3.540,12.070,-1.840
-1.700,-0.580,-0.070
-4.080,13.680,-2.000
5.100,-15.540,5.510
-3.130,10.540,-4.130
2.840,-13.190,7.720
-0.820,-3.120,0.420
-3.440,7.500,-2.870
-2.610,8.420,-4.670
-2.610,8.420,-4.670
-2.610,8.420,-4.670
-2.860,7.290,-4.240
-2.860,7.290,-4.240
-2.860,7.290,-4.240
-2.860,7.290,-4.240
-2.910,6.580,-4.050
-2.910,6.580,-4.050
-2.910,6.580,-4.050
-2.910,6.580,-4.050
-2.910,6.580,-4.050
-3.050,6.060,-3.850
-3.050,6.060,-3.850
-3.050,6.060,-3.850
-3.050,6.060,-3.850
-3.050,6.060,-3.850
-3.440,5.590,-3.510
-3.440,5.590,-3.510
-3.440,5.590,-3.510
-3.440,5.590,-3.510
-3.440,5.590,-3.510
-2.890,3.490,-2.750
-2.890,3.490,-2.750
-2.890,3.490,-2.750
-3.090,2.550,-2.070
-3.090,2.550,-2.070
-3.090,2.550,-2.070
-3.090,2.550,-2.070
-3.150,1.480,-1.270
-3.150,1.480,-1.270
-3.150,1.480,-1.270
-3.150,1.480,-1.270
,,,
1.260,2.230,2.480
1.460,-0.640,3.060
-6.500,-1.380,0.040
3.280,3.940,1.710
1.950,-1.470,-1.110
-6.370,-3.640,0.460
-3.900,6.530,0.670
-2.950,-6.050,2.390
-3.540,12.070,-1.840
-1.700,-0.580,-0.070
-4.080,13.680,-2.000
5.100,-15.540,5.510
-3.130,10.540,-4.130
2.840,-13.190,7.720
-0.820,-3.120,0.420
-3.440,7.500,-2.870
-4.290,4.880,-3.350
2.740,-17.330,9.110
2.740,-17.330,9.110
4.570,-18.470,9.230
4.570,-18.470,9.230
4.570,-18.470,9.230
4.570,-18.470,9.230
4.570,-18.470,9.230
4.570,-18.470,9.230
5.060,-18.050,8.910
5.060,-18.050,8.910
5.060,-18.050,8.910
5.060,-18.050,8.910
5.220,-17.190,8.720
5.220,-17.190,8.720
5.220,-17.190,8.720
5.220,-17.190,8.720
5.160,-14.970,8.060
5.160,-14.970,8.060
5.160,-14.970,8.060
5.160,-14.970,8.060
4.870,-14.150,7.580
4.870,-14.150,7.580
4.870,-14.150,7.580
4.870,-14.150,7.580
4.870,-14.150,7.580
4.510,-13.550,7.020
4.510,-13.550,7.020
4.510,-13.550,7.020
4.510,-13.550,7.020
4.510,-13.550,7.020
4.510,-13.550,7.020
3.620,-12.430,5.820
3.620,-12.430,5.820
,,,
1.460,-0.640,3.060
-6.500,-1.380,0.040
3.280,3.940,1.710
1.950,-1.470,-1.110
-6.370,-3.640,0.460
-3.900,6.530,0.670
-2.950,-6.050,2.390
-3.540,12.070,-1.840
-1.700,-0.580,-0.070
-4.080,13.680,-2.000
5.100,-15.540,5.510
-3.130,10.540,-4.130
2.840,-13.190,7.720
-0.820,-3.120,0.420
-3.440,7.500,-2.870
-4.290,4.880,-3.350
0.100,-17.100,7.840
2.290,-12.310,3.430
2.290,-12.310,3.430
1.560,-11.520,3.230
1.560,-11.520,3.230
1.560,-11.520,3.230
1.560,-11.520,3.230
0.770,-10.790,3.100
0.770,-10.790,3.100
0.770,-10.790,3.100
0.770,-10.790,3.100
-0.790,-8.760,2.770
-0.790,-8.760,2.770
-0.790,-8.760,2.770
-0.790,-8.760,2.770
-0.790,-8.760,2.770
-1.310,-7.560,2.690
-1.310,-7.560,2.690
-1.310,-7.560,2.690
-1.310,-7.560,2.690
-1.310,-7.560,2.690
-1.650,-6.420,2.370
-1.650,-6.420,2.370
-1.650,-6.420,2.370
-1.650,-6.420,2.370
-1.650,-6.420,2.370
-2.080,-4.990,2.050
-2.080,-4.990,2.050
-2.080,-4.990,2.050
-2.080,-4.990,2.050
-2.070,-2.430,1.370
-2.070,-2.430,1.370
-2.070,-2.430,1.370
-2.100,-1.070,1.200
,,,
-6.500,-1.380,0.040
3.280,3.940,1.710
1.950,-1.470,-1.110
-6.370,-3.640,0.460
-3.900,6.530,0.670
-2.950,-6.050,2.390
-3.540,12.070,-1.840
-1.700,-0.580,-0.070
-4.080,13.680,-2.000
5.100,-15.540,5.510
-3.130,10.540,-4.130
2.840,-13.190,7.720
-0.820,-3.120,0.420
-3.440,7.500,-2.870
-4.290,4.880,-3.350
0.100,-17.100,7.840
1.740,-9.720,4.580
-0.010,-2.110,-0.220
-0.010,-2.110,-0.220
-0.010,-2.110,-0.220
-0.010,-2.110,-0.220
-0.010,-2.110,-0.220
-0.070,-1.750,-0.520
-0.070,-1.750,-0.520
-0.070,-1.750,-0.520
-0.070,-1.750,-0.520
-0.070,-1.750,-0.520
-0.660,-0.570,-0.900
-0.660,-0.570,-0.900
-0.660,-0.570,-0.900
-0.660,-0.570,-0.900
-0.660,-0.570,-0.900
-0.640,0.020,-1.240
-0.640,0.020,-1.240
-0.640,0.020,-1.240
-0.640,0.020,-1.240
-0.940,0.790,-1.660
-0.940,0.790,-1.660
-0.940,0.790,-1.660
-0.940,0.790,-1.660
-1.510,2.460,-2.140
-1.510,2.460,-2.140
-1.510,2.460,-2.140
-1.510,2.460,-2.140
-1.510,2.460,-2.140
-1.950,3.470,-2.220
-1.950,3.470,-2.220
-1.950,3.470,-2.220
-1.950,3.470,-2.220
-1.950,3.470,-2.220
,,,
-6.370,-3.640,0.460
-3.900,6.530,0.670
-2.950,-6.050,2.390
-3.540,12.070,-1.840
-1.700,-0.580,-0.070
-4.080,13.680,-2.000
5.100,-15.540,5.510
-3.130,10.540,-4.130
2.840,-13.190,7.720
-0.820,-3.120,0.420
-3.440,7.500,-2.870
-4.290,4.880,-3.350
0.100,-17.100,7.840
1.740,-9.720,4.580
0.650,-3.630,-0.190
-2.850,3.990,-0.090
-2.380,11.040,-4.310
-3.420,-1.290,0.740
-3.420,-1.290,0.740
-3.420,-1.290,0.740
-2.700,-4.370,2.440
-2.700,-4.370,2.440
-2.700,-4.370,2.440
-2.700,-4.370,2.440
-2.230,-6.010,3.330
-2.230,-6.010,3.330
-2.230,-6.010,3.330
-2.230,-6.010,3.330
-1.730,-7.480,4.320
-1.730,-7.480,4.320
-1.730,-7.480,4.320
-1.730,-7.480,4.320
-1.730,-7.480,4.320
-1.730,-7.480,4.320
-0.830,-10.050,5.490
-0.830,-10.050,5.490
-0.830,-10.050,5.490
-0.830,-10.050,5.490
-0.830,-10.050,5.490
-0.130,-11.270,5.860
-0.130,-11.270,5.860
-0.130,-11.270,5.860
-0.130,-11.270,5.860
0.430,-12.320,6.270
0.430,-12.320,6.270
0.430,-12.320,6.270
0.430,-12.320,6.270
1.220,-14.160,6.910
1.220,-14.160,6.910
1.220,-14.160,6.910
,,,
-2.950,-6.050,2.390
-3.540,12.070,-1.840
-1.700,-0.580,-0.070
-4.080,13.680,-2.000
5.100,-15.540,5.510
-3.130,10.540,-4.130
2.840,-13.190,7.720
-0.820,-3.120,0.420
-3.440,7.500,-2.870
-4.290,4.880,-3.350
0.100,-17.100,7.840
1.740,-9.720,4.580
0.650,-3.630,-0.190
-2.850,3.990,-0.090
-2.380,11.040,-4.310
-2.900,-0.090,1.440
2.210,-13.110,5.650
0.300,-6.480,1.910
0.300,-6.480,1.910
0.300,-6.480,1.910
0.300,-6.480,1.910
0.300,-6.480,1.910
0.080,-6.050,1.980
0.080,-6.050,1.980
0.080,-6.050,1.980
0.080,-6.050,1.980
0.080,-6.050,1.980
0.080,-6.050,1.980
-0.030,-4.970,1.880
-0.030,-4.970,1.880
-0.030,-4.970,1.880
-0.030,-4.970,1.880
0.030,-4.460,1.630
0.030,-4.460,1.630
0.030,-4.460,1.630
0.030,-4.460,1.630
0.130,-3.860,1.480
0.130,-3.860,1.480
0.130,-3.860,1.480
0.130,-3.860,1.480
0.370,-3.480,1.180
0.370,-3.480,1.180
0.370,-3.480,1.180
0.370,-3.480,1.180
0.370,-3.480,1.180
0.830,-2.730,0.490
0.830,-2.730,0.490
0.830,-2.730,0.490
0.830,-2.730,0.490
0.830,-2.730,0.490
,,,
-3.540,12.070,-1.840
-1.700,-0.580,-0.070
-4.080,13.680,-2.000
5.100,-15.540,5.510
-3.130,10.540,-4.130
2.840,-13.190,7.720
-0.820,-3.120,0.420
-3.440,7.500,-2.870
-4.290,4.880,-3.350
0.100,-17.100,7.840
1.740,-9.720,4.580
0.650,-3.630,-0.190
-2.850,3.990,-0.090
-2.380,11.040,-4.310
-2.900,-0.090,1.440
2.210,-13.110,5.650
3.250,-14.040,5.640
1.130,-5.880,1.160
0.900,-5.350,1.050
0.900,-5.350,1.050
0.900,-5.350,1.050
0.900,-5.350,1.050
0.920,-4.890,0.900
0.920,-4.890,0.900
0.920,-4.890,0.900
0.920,-4.890,0.900
0.810,-4.040,0.610
0.810,-4.040,0.610
0.810,-4.040,0.610
0.810,-4.040,0.610
0.750,-3.640,0.440
0.750,-3.640,0.440
0.750,-3.640,0.440
0.750,-3.640,0.440
0.750,-3.640,0.440
0.680,-3.200,0.210
0.680,-3.200,0.210
0.680,-3.200,0.210
0.680,-3.200,0.210
0.680,-3.200,0.210
0.680,-3.200,0.210
0.270,-2.030,0.000
0.270,-2.030,0.000
0.270,-2.030,0.000
0.270,-2.030,0.000
0.270,-2.030,0.000
-0.110,-1.170,-0.040
-0.110,-1.170,-0.040
-0.110,-1.170,-0.040
-0.110,-1.170,-0.040
,,,
-1.700,-0.580,-0.070
-4.080,13.680,-2.000
5.100,-15.540,5.510
-3.130,10.540,-4.130
2.840,-13.190,7.720
-0.820,-3.120,0.420
-3.440,7.500,-2.870
-4.290,4.880,-3.350
0.100,-17.100,7.840
1.740,-9.720,4.580
0.650,-3.630,-0.190
-2.850,3.990,-0.090
-2.380,11.040,-4.310
-2.900,-0.090,1.440
2.210,-13.110,5.650
3.250,-14.040,5.640
3.270,-13.460,6.080
0.760,-4.600,1.640
0.760,-4.600,1.640
0.760,-4.600,1.640
0.280,-3.800,1.500
0.280,-3.800,1.500
0.280,-3.800,1.500
0.280,-3.800,1.500
0.280,-3.800,1.500
0.280,-3.800,1.500
0.250,-3.450,1.370
0.250,-3.450,1.370
0.250,-3.450,1.370
0.250,-3.450,1.370
0.250,-3.450,1.370
0.220,-3.090,1.220
0.220,-3.090,1.220
0.220,-3.090,1.220
0.220,-3.090,1.220
0.220,-3.090,1.220
-0.260,-2.590,1.090
-0.260,-2.590,1.090
-0.260,-2.590,1.090
-0.260,-2.590,1.090
-0.350,-2.150,1.120
-0.350,-2.150,1.120
-0.350,-2.150,1.120
-0.350,-2.150,1.120
-0.480,-1.630,1.030
-0.480,-1.630,1.030
-0.480,-1.630,1.030
-0.480,-1.630,1.030
-0.480,-1.630,1.030
-0.810,-1.010,0.960
,,,
-4.080,13.680,-2.000
5.100,-15.540,5.510
-3.130,10.540,-4.130
2.840,-13.190,7.720
-0.820,-3.120,0.420
-3.440,7.500,-2.870
-4.290,4.880,-3.350
0.100,-17.100,7.840
1.740,-9.720,4.580
0.650,-3.630,-0.190
-2.850,3.990,-0.090
-2.380,11.040,-4.310
-2.900,-0.090,1.440
2.210,-13.110,5.650
3.250,-14.040,5.640
3.270,-13.460,6.080
2.760,-10.880,4.950
1.720,-4.800,0.750
1.720,-4.800,0.750
1.720,-4.800,0.750
1.720,-4.800,0.750
1.720,-4.800,0.750
1.510,-4.330,0.560
1.510,-4.330,0.560
1.510,-4.330,0.560
1.510,-4.330,0.560
1.370,-3.890,0.390
1.370,-3.890,0.390
1.370,-3.890,0.390
1.370,-3.890,0.390
1.200,-3.340,0.380
1.200,-3.340,0.380
1.200,-3.340,0.380
1.200,-3.340,0.380
1.310,-2.840,0.020
1.310,-2.840,0.020
1.310,-2.840,0.020
1.310,-2.840,0.020
1.310,-2.840,0.020
1.050,-2.540,-0.060
1.050,-2.540,-0.060
1.050,-2.540,-0.060
1.050,-2.540,-0.060
1.050,-2.540,-0.060
1.050,-2.540,-0.060
0.800,-2.200,-0.140
0.800,-2.200,-0.140
0.800,-2.200,-0.140
0.800,-2.200,-0.140
0.800,-2.200,-0.140
,,,
5.100,-15.540,5.510
-3.130,10.540,-4.130
2.840,-13.190,7.720
-0.820,-3.120,0.420
-3.440,7.500,-2.870
-4.290,4.880,-3.350
0.100,-17.100,7.840
1.740,-9.720,4.580
0.650,-3.630,-0.190
-2.850,3.990,-0.090
-2.380,11.040,-4.310
-2.900,-0.090,1.440
2.210,-13.110,5.650
3.250,-14.040,5.640
3.270,-13.460,6.080
2.760,-10.880,4.950
1.190,-8.030,2.550
3.350,-5.530,-5.780
3.350,-5.530,-5.780
3.350,-5.530,-5.780
3.520,-5.640,-5.980
3.520,-5.640,-5.980
3.520,-5.640,-5.980
3.520,-5.640,-5.980
3.500,-5.720,-5.890
3.500,-5.720,-5.890
3.500,-5.720,-5.890
3.500,-5.720,-5.890
3.500,-5.720,-5.890
3.500,-5.720,-5.890
3.460,-5.960,-5.490
3.460,-5.960,-5.490
3.460,-5.960,-5.490
3.460,-5.960,-5.490
3.460,-5.960,-5.490
3.560,-6.060,-5.320
3.560,-6.060,-5.320
3.560,-6.060,-5.320
3.560,-6.060,-5.320
3.560,-6.060,-5.320
3.550,-6.140,-5.100
3.550,-6.140,-5.100
3.550,-6.140,-5.100
3.280,-6.860,-4.130
3.280,-6.860,-4.130
3.280,-6.860,-4.130
3.280,-6.860,-4.130
2.980,-7.120,-3.560
2.980,-7.120,-3.560
2.980,-7.120,-3.560
,,,
-3.130,10.540,-4.130
2.840,-13.190,7.720
-0.820,-3.120,0.420
-3.440,7.500,-2.870
-4.290,4.880,-3.350
0.100,-17.100,7.840
1.740,-9.720,4.580
0.650,-3.630,-0.190
-2.850,3.990,-0.090
-2.380,11.040,-4.310
-2.900,-0.090,1.440
2.210,-13.110,5.650
3.250,-14.040,5.640
3.270,-13.460,6.080
2.760,-10.880,4.950
1.190,-8.030,2.550
0.650,-10.290,5.750
1.290,-4.890,0.130
1.290,-4.890,0.130
1.290,-4.890,0.130
1.050,-4.380,0.020
1.050,-4.380,0.020
1.050,-4.380,0.020
1.050,-4.380,0.020
1.050,-4.380,0.020
1.050,-4.380,0.020
0.750,-3.420,-0.190
0.750,-3.420,-0.190
0.750,-3.420,-0.190
0.750,-3.420,-0.190
0.510,-2.880,-0.430
0.510,-2.880,-0.430
0.510,-2.880,-0.430
0.510,-2.880,-0.430
0.540,-2.460,-0.660
0.540,-2.460,-0.660
0.540,-2.460,-0.660
0.540,-2.460,-0.660
0.320,-1.180,-1.050
0.320,-1.180,-1.050
0.320,-1.180,-1.050
0.320,-1.180,-1.050
0.320,-1.180,-1.050
0.000,-0.280,-1.050
0.000,-0.280,-1.050
0.000,-0.280,-1.050
0.000,-0.280,-1.050
0.000,-0.280,-1.050
0.000,-0.280,-1.050
-0.510,0.810,-0.780
,,,
-3.440,7.500,-2.870
-4.290,4.880,-3.350
0.100,-17.100,7.840
1.740,-9.720,4.580
0.650,-3.630,-0.190
-2.850,3.990,-0.090
-2.380,11.040,-4.310
-2.900,-0.090,1.440
2.210,-13.110,5.650
3.250,-14.040,5.640
3.270,-13.460,6.080
2.760,-10.880,4.950
1.190,-8.030,2.550
0.650,-10.290,5.750
0.690,-3.700,1.940
-1.390,1.780,0.310
-2.460,7.190,-3.110
-1.690,6.290,-3.550
-1.690,6.290,-3.550
-2.390,5.500,-2.930
-2.390,5.500,-2.930
-2.390,5.500,-2.930
-2.980,5.140,-2.400
-2.980,5.140,-2.400
-2.980,5.140,-2.400
-2.980,5.140,-2.400
-3.460,4.790,-1.800
-3.460,4.790,-1.800
-3.460,4.790,-1.800
-3.460,4.790,-1.800
-3.460,4.790,-1.800
-3.460,4.790,-1.800
-4.090,4.660,-1.230
-4.090,4.660,-1.230
-4.090,4.660,-1.230
-4.090,4.660,-1.230
-4.090,4.660,-1.230
-5.380,3.980,-0.090
-5.380,3.980,-0.090
-5.380,3.980,-0.090
-5.380,3.980,-0.090
-5.380,3.980,-0.090
-5.950,3.310,0.630
-5.950,3.310,0.630
-5.950,3.310,0.630
-6.070,2.190,1.080
-6.070,2.190,1.080
-6.070,2.190,1.080
-6.070,2.190,1.080
-5.860,-0.200,2.220
,,,
1.740,-9.720,4.580
0.650,-3.630,-0.190
-2.850,3.990,-0.090
-2.380,11.040,-4.310
-2.900,-0.090,1.440
2.210,-13.110,5.650
3.250,-14.040,5.640
3.270,-13.460,6.080
2.760,-10.880,4.950
1.190,-8.030,2.550
0.650,-10.290,5.750
0.690,-3.700,1.940
-1.390,1.780,0.310
-2.460,7.190,-3.110
-0.930,-0.880,1.620
-2.140,4.480,-0.150
-0.980,7.180,-3.970
-1.330,2.000,-2.290
-1.330,2.000,-2.290
-1.330,2.000,-2.290
-2.040,1.940,-1.680
-2.040,1.940,-1.680
-2.040,1.940,-1.680
-2.040,1.940,-1.680
-2.040,1.940,-1.680
-2.040,1.940,-1.680
-2.160,1.540,-1.290
-2.160,1.540,-1.290
-2.160,1.540,-1.290
-2.160,1.540,-1.290
-2.790,0.970,-0.230
-2.790,0.970,-0.230
-2.790,0.970,-0.230
-2.790,0.970,-0.230
-2.600,0.450,0.170
-2.600,0.450,0.170
-2.600,0.450,0.170
-2.600,0.450,0.170
-2.930,-0.100,0.750
-2.930,-0.100,0.750
-2.930,-0.100,0.750
-2.930,-0.100,0.750
-2.930,-0.100,0.750
-2.080,-2.070,1.520
-2.080,-2.070,1.520
-2.080,-2.070,1.520
-2.080,-2.070,1.520
-2.080,-2.070,1.520
-2.080,-2.070,1.520
-1.870,-3.110,1.990
,,,
-2.380,11.040,-4.310
-2.900,-0.090,1.440
2.210,-13.110,5.650
3.250,-14.040,5.640
3.270,-13.460,6.080
2.760,-10.880,4.950
1.190,-8.030,2.550
0.650,-10.290,5.750
0.690,-3.700,1.940
-1.390,1.780,0.310
-2.460,7.190,-3.110
-0.930,-0.880,1.620
-2.140,4.480,-0.150
-0.980,7.180,-3.970
0.550,-3.120,0.410
0.290,1.030,-0.550
-1.320,7.960,-0.720
-2.470,5.480,-1.430
-2.820,4.890,-1.250
-2.820,4.890,-1.250
-2.820,4.890,-1.250
-2.820,4.890,-1.250
-3.400,3.830,-0.700
-3.400,3.830,-0.700
-3.400,3.830,-0.700
-3.400,3.830,-0.700
-3.990,3.160,-0.310
-3.990,3.160,-0.310
-3.990,3.160,-0.310
-3.990,3.160,-0.310
-3.990,3.160,-0.310
-4.040,2.120,-0.050
-4.040,2.120,-0.050
-4.040,2.120,-0.050
-4.040,2.120,-0.050
-4.040,2.120,-0.050
-4.040,2.120,-0.050
-4.120,1.140,0.160
-4.120,1.140,0.160
-4.120,1.140,0.160
-4.120,1.140,0.160
-4.060,-1.010,0.940
-4.060,-1.010,0.940
-4.060,-1.010,0.940
-4.060,-1.010,0.940
-4.130,-2.460,1.520
-4.130,-2.460,1.520
-4.130,-2.460,1.520
-4.130,-2.460,1.520
-4.030,-3.650,2.070
,,,
-2.900,-0.090,1.440
2.210,-13.110,5.650
3.250,-14.040,5.640
3.270,-13.460,6.080
2.760,-10.880,4.950
1.190,-8.030,2.550
0.650,-10.290,5.750
0.690,-3.700,1.940
-1.390,1.780,0.310
-2.460,7.190,-3.110
-0.930,-0.880,1.620
-2.140,4.480,-0.150
-0.980,7.180,-3.970
0.550,-3.120,0.410
0.290,1.030,-0.550
-1.320,7.960,-0.720
-4.100,10.310,0.200
-2.130,4.160,-1.750
-2.130,4.160,-1.750
-2.130,4.160,-1.750
-2.130,4.160,-1.750
-2.130,4.160,-1.750
-2.530,2.840,-1.430
-2.530,2.840,-1.430
-2.530,2.840,-1.430
-2.530,2.840,-1.430
-2.530,2.840,-1.430
-2.840,2.210,-1.160
-2.840,2.210,-1.160
-2.840,2.210,-1.160
-2.840,2.210,-1.160
-2.840,2.210,-1.160
-2.910,1.360,-0.940
-2.910,1.360,-0.940
-2.910,1.360,-0.940
-2.910,1.360,-0.940
-2.990,-0.510,-0.340
-2.990,-0.510,-0.340
-2.990,-0.510,-0.340
-2.830,-1.610,-0.050
-2.830,-1.610,-0.050
-2.830,-1.610,-0.050
-2.830,-1.610,-0.050
-2.830,-1.610,-0.050
-2.830,-1.610,-0.050
-2.390,-2.930,0.200
-2.390,-2.930,0.200
-2.390,-2.930,0.200
-2.390,-2.930,0.200
-2.390,-2.930,0.200
,,,
2.210,-13.110,5.650
3.250,-14.040,5.640
3.270,-13.460,6.080
2.760,-10.880,4.950
1.190,-8.030,2.550
0.650,-10.290,5.750
0.690,-3.700,1.940
-1.390,1.780,0.310
-2.460,7.190,-3.110
-0.930,-0.880,1.620
-2.140,4.480,-0.150
-0.980,7.180,-3.970
0.550,-3.120,0.410
0.290,1.030,-0.550
-1.320,7.960,-0.720
-4.100,10.310,0.200
-3.710,5.980,-0.380
-1.470,6.930,-3.080
-1.420,5.780,-2.950
-1.420,5.780,-2.950
-1.420,5.780,-2.950
-1.420,5.780,-2.950
-1.480,5.230,-2.890
-1.480,5.230,-2.890
-1.480,5.230,-2.890
-1.480,5.230,-2.890
-1.440,4.600,-2.850
-1.440,4.600,-2.850
-1.440,4.600,-2.850
-1.440,4.600,-2.850
-1.430,3.630,-2.590
-1.430,3.630,-2.590
-1.430,3.630,-2.590
-1.430,3.630,-2.590
-1.430,3.630,-2.590
-1.430,3.090,-2.360
-1.430,3.090,-2.360
-1.430,3.090,-2.360
-1.430,3.090,-2.360
-1.430,3.090,-2.360
-1.430,3.090,-2.360
-1.520,2.600,-2.190
-1.520,2.600,-2.190
-1.520,2.600,-2.190
-1.520,2.600,-2.190
-1.770,2.160,-1.900
-1.770,2.160,-1.900
-1.770,2.160,-1.900
-1.770,2.160,-1.900
-1.910,0.800,-0.920
,,,
3.250,-14.040,5.640
3.270,-13.460,6.080
2.760,-10.880,4.950
1.190,-8.030,2.550
0.650,-10.290,5.750
0.690,-3.700,1.940
-1.390,1.780,0.310
-2.460,7.190,-3.110
-0.930,-0.880,1.620
-2.140,4.480,-0.150
-0.980,7.180,-3.970
0.550,-3.120,0.410
0.290,1.030,-0.550
-1.320,7.960,-0.720
-4.100,10.310,0.200
-3.710,5.980,-0.380
-4.140,7.680,-0.920
-1.830,7.790,-3.650
-1.830,7.790,-3.650
-1.830,7.790,-3.650
-1.770,7.430,-3.560
-1.770,7.430,-3.560
-1.770,7.430,-3.560
-1.770,7.430,-3.560
-1.770,7.430,-3.560
-1.770,7.430,-3.560
-1.700,6.670,-3.360
-1.700,6.670,-3.360
-1.700,6.670,-3.360
-1.700,6.670,-3.360
-1.700,6.670,-3.360
-1.770,6.200,-3.230
-1.770,6.200,-3.230
-1.770,6.200,-3.230
-1.770,6.200,-3.230
-1.770,6.200,-3.230
-1.760,5.580,-3.100
-1.760,5.580,-3.100
-1.760,5.580,-3.100
-1.760,5.580,-3.100
-1.830,5.030,-2.890
-1.830,5.030,-2.890
-1.830,5.030,-2.890
-1.830,5.030,-2.890
-1.770,3.710,-2.600
-1.770,3.710,-2.600
-1.770,3.710,-2.600
-1.770,3.710,-2.600
-1.770,3.710,-2.600
-2.050,3.280,-2.390
,,,
0.080,1.270,-1.120
-0.100,-0.350,2.430
0.680,-2.730,4.020
0.360,-2.330,2.520
1.140,-1.120,-0.770
-0.160,0.520,0.550
0.470,0.320,-0.070
0.810,-1.250,0.370
0.170,-1.560,1.190
0.030,-0.890,0.970
0.650,-0.980,-0.140
0.330,0.830,-0.800
0.650,1.900,-0.720
0.180,1.760,1.040
-0.090,3.660,0.490
-2.430,2.290,-1.380
1.970,-10.400,2.480
1.470,-7.110,-0.830
1.470,-7.110,-0.830
1.470,-7.110,-0.830
1.470,-7.110,-0.830
1.470,-7.110,-0.830
0.750,-6.030,-0.840
0.750,-6.030,-0.840
0.750,-6.030,-0.840
0.750,-6.030,-0.840
0.750,-6.030,-0.840
0.750,-6.030,-0.840
-0.080,-4.700,-0.840
-0.080,-4.700,-0.840
-0.080,-4.700,-0.840
-0.080,-4.700,-0.840
-0.780,-3.220,-0.830
-0.780,-3.220,-0.830
-0.780,-3.220,-0.830
-0.780,-3.220,-0.830
-1.790,-0.590,-0.680
-1.790,-0.590,-0.680
-1.790,-0.590,-0.680
-1.790,-0.590,-0.680
-2.230,0.740,-0.580
-2.230,0.740,-0.580
-2.230,0.740,-0.580
-2.230,0.740,-0.580
-2.230,0.740,-0.580
-2.410,1.930,-0.500
-2.410,1.930,-0.500
-2.410,1.930,-0.500
-2.410,1.930,-0.500
-2.410,1.930,-0.500
,,,
-0.100,-0.350,2.430
0.680,-2.730,4.020
0.360,-2.330,2.520
1.140,-1.120,-0.770
-0.160,0.520,0.550
0.470,0.320,-0.070
0.810,-1.250,0.370
0.170,-1.560,1.190
0.030,-0.890,0.970
0.650,-0.980,-0.140
0.330,0.830,-0.800
0.650,1.900,-0.720
0.180,1.760,1.040
-0.090,3.660,0.490
-2.430,2.290,-1.380
1.970,-10.400,2.480
0.860,-7.060,3.860
1.870,-5.990,2.680
1.910,-5.670,1.970
1.910,-5.670,1.970
1.910,-5.670,1.970
1.910,-5.670,1.970
1.770,-5.440,1.710
1.770,-5.440,1.710
1.770,-5.440,1.710
1.770,-5.440,1.710
1.720,-5.280,1.510
1.720,-5.280,1.510
1.720,-5.280,1.510
1.720,-5.280,1.510
1.250,-4.750,1.270
1.250,-4.750,1.270
1.250,-4.750,1.270
1.250,-4.750,1.270
1.250,-4.750,1.270
1.140,-4.510,1.180
1.140,-4.510,1.180
1.140,-4.510,1.180
1.140,-4.510,1.180
1.140,-4.510,1.180
1.140,-4.510,1.180
0.810,-4.270,1.050
0.810,-4.270,1.050
0.810,-4.270,1.050
0.810,-4.270,1.050
0.810,-4.270,1.050
0.700,-3.890,0.830
0.700,-3.890,0.830
0.700,-3.890,0.830
0.510,-3.700,0.760
,,,
0.680,-2.730,4.020
0.360,-2.330,2.520
1.140,-1.120,-0.770
-0.160,0.520,0.550
0.470,0.320,-0.070
0.810,-1.250,0.370
0.170,-1.560,1.190
0.030,-0.890,0.970
0.650,-0.980,-0.140
0.330,0.830,-0.800
0.650,1.900,-0.720
0.180,1.760,1.040
-0.090,3.660,0.490
-2.430,2.290,-1.380
1.970,-10.400,2.480
0.860,-7.060,3.860
-2.680,9.360,-3.670
-2.160,4.650,-2.640
-2.160,4.650,-2.640
-2.160,4.650,-2.640
-2.150,4.160,-2.420
-2.150,4.160,-2.420
-2.150,4.160,-2.420
-2.150,4.160,-2.420
-2.150,4.160,-2.420
-2.150,4.160,-2.420
-1.850,2.980,-2.290
-1.850,2.980,-2.290
-1.850,2.980,-2.290
-1.850,2.980,-2.290
-1.850,2.980,-2.290
-1.560,2.270,-2.370
-1.560,2.270,-2.370
-1.560,2.270,-2.370
-1.560,2.270,-2.370
-1.560,2.270,-2.370
-1.160,1.530,-2.420
-1.160,1.530,-2.420
-1.160,1.530,-2.420
-1.160,1.530,-2.420
-0.850,0.840,-2.480
-0.850,0.840,-2.480
-0.850,0.840,-2.480
-0.060,-0.530,-2.200
-0.060,-0.530,-2.200
-0.060,-0.530,-2.200
-0.060,-0.530,-2.200
-0.060,-0.530,-2.200
-0.060,-0.530,-2.200
-1.270,-0.900,-0.970
,,,
1.140,-1.120,-0.770
-0.160,0.520,0.550
0.470,0.320,-0.070
0.810,-1.250,0.370
0.170,-1.560,1.190
0.030,-0.890,0.970
0.650,-0.980,-0.140
0.330,0.830,-0.800
0.650,1.900,-0.720
0.180,1.760,1.040
-0.090,3.660,0.490
-2.430,2.290,-1.380
1.970,-10.400,2.480
0.860,-7.060,3.860
-2.680,9.360,-3.670
-0.920,-1.020,0.730
-3.720,5.330,0.100
-1.300,7.210,-3.310
-1.300,7.210,-3.310
-1.300,7.210,-3.310
-1.300,7.210,-3.310
-1.310,7.010,-3.250
-1.310,7.010,-3.250
-1.310,7.010,-3.250
-1.310,7.010,-3.250
-0.960,6.580,-3.360
-0.960,6.580,-3.360
-0.960,6.580,-3.360
-0.960,6.580,-3.360
-0.960,6.270,-3.300
-0.960,6.270,-3.300
-0.960,6.270,-3.300
-0.960,6.270,-3.300
-0.820,5.970,-3.300
-0.820,5.970,-3.300
-0.820,5.970,-3.300
-0.820,5.970,-3.300
-0.820,5.970,-3.300
-0.820,5.970,-3.300
-0.910,5.420,-3.170
-0.910,5.420,-3.170
-0.910,5.420,-3.170
-0.910,5.420,-3.170
-0.910,5.420,-3.170
-0.860,5.120,-3.090
-0.860,5.120,-3.090
-0.860,5.120,-3.090
-0.860,5.120,-3.090
-0.770,4.710,-3.090
-0.770,4.710,-3.090
,,,
-0.160,0.520,0.550
0.470,0.320,-0.070
0.810,-1.250,0.370
0.170,-1.560,1.190
0.030,-0.890,0.970
0.650,-0.980,-0.140
0.330,0.830,-0.800
0.650,1.900,-0.720
0.180,1.760,1.040
-0.090,3.660,0.490
-2.430,2.290,-1.380
1.970,-10.400,2.480
0.860,-7.060,3.860
-2.680,9.360,-3.670
-0.920,-1.020,0.730
-3.720,5.330,0.100
1.420,-6.070,2.630
0.240,-2.460,0.760
0.240,-2.460,0.760
0.240,-2.460,0.760
0.130,-2.320,0.770
0.130,-2.320,0.770
0.130,-2.320,0.770
0.130,-2.320,0.770
0.030,-2.250,0.810
0.030,-2.250,0.810
0.030,-2.250,0.810
0.030,-2.250,0.810
0.030,-2.250,0.810
-0.070,-2.100,0.890
-0.070,-2.100,0.890
-0.070,-2.100,0.890
-0.070,-2.100,0.890
-0.070,-2.100,0.890
-0.070,-2.100,0.890
-0.220,-1.880,0.810
-0.220,-1.880,0.810
-0.220,-1.880,0.810
-0.220,-1.880,0.810
-0.400,-1.670,0.830
-0.400,-1.670,0.830
-0.400,-1.670,0.830
-0.400,-1.670,0.830
-0.520,-1.350,0.850
-0.520,-1.350,0.850
-0.520,-1.350,0.850
-0.520,-1.350,0.850
-1.120,-0.560,0.740
-1.120,-0.560,0.740
-1.120,-0.560,0.740
,,,
0.650,1.900,-0.720
0.180,1.760,1.040
-0.090,3.660,0.490
-2.430,2.290,-1.380
1.970,-10.400,2.480
0.860,-7.060,3.860
-2.680,9.360,-3.670
-0.920,-1.020,0.730
-3.720,5.330,0.100
1.420,-6.070,2.630
0.220,2.920,-0.390
0.610,1.540,0.310
0.830,0.340,0.530
-0.470,2.580,0.020
-0.160,2.840,-1.370
-1.400,1.100,-0.950
-0.170,-6.930,3.010
1.400,-5.120,0.500
1.400,-5.120,0.500
1.400,-5.120,0.500
1.400,-5.120,0.500
1.320,-4.910,0.430
1.320,-4.910,0.430
1.320,-4.910,0.430
1.320,-4.910,0.430
1.100,-4.610,0.350
1.100,-4.610,0.350
1.100,-4.610,0.350
1.100,-4.610,0.350
1.020,-4.410,0.340
1.020,-4.410,0.340
1.020,-4.410,0.340
0.960,-4.090,0.310
0.960,-4.090,0.310
0.960,-4.090,0.310
0.960,-4.090,0.310
0.960,-4.090,0.310
0.960,-4.090,0.310
0.680,-3.550,0.330
0.680,-3.550,0.330
0.680,-3.550,0.330
0.680,-3.550,0.330
0.680,-3.550,0.330
0.590,-3.300,0.340
0.590,-3.300,0.340
0.590,-3.300,0.340
0.590,-3.300,0.340
0.590,-3.300,0.340
0.510,-2.940,0.300
0.510,-2.940,0.300
,,,
-2.680,9.360,-3.670
-0.920,-1.020,0.730
-3.720,5.330,0.100
1.420,-6.070,2.630
0.220,2.920,-0.390
0.610,1.540,0.310
0.830,0.340,0.530
-0.470,2.580,0.020
-0.160,2.840,-1.370
-1.400,1.100,-0.950
-0.170,-6.930,3.010
-0.790,-3.990,1.170
-1.530,0.030,1.990
-1.140,4.140,0.130
-0.010,4.080,-2.000
-2.280,1.330,1.090
-2.460,-4.210,3.440
3.000,-12.050,3.370
3.000,-12.050,3.370
2.900,-11.700,2.970
2.900,-11.700,2.970
2.900,-11.700,2.970
2.900,-11.700,2.970
2.900,-11.700,2.970
2.790,-11.310,2.530
2.790,-11.310,2.530
2.790,-11.310,2.530
2.790,-11.310,2.530
2.790,-11.310,2.530
2.790,-11.310,2.530
2.270,-9.970,1.780
2.270,-9.970,1.780
2.270,-9.970,1.780
2.270,-9.970,1.780
2.030,-9.310,1.510
2.030,-9.310,1.510
2.030,-9.310,1.510
2.030,-9.310,1.510
1.690,-8.620,1.210
1.690,-8.620,1.210
1.690,-8.620,1.210
1.690,-8.620,1.210
1.340,-8.000,1.020
1.340,-8.000,1.020
1.340,-8.000,1.020
1.340,-8.000,1.020
1.340,-8.000,1.020
1.340,-8.000,1.020
0.690,-6.940,1.000
0.690,-6.940,1.000
,,,
1.420,-6.070,2.630
0.220,2.920,-0.390
0.610,1.540,0.310
0.830,0.340,0.530
-0.470,2.580,0.020
-0.160,2.840,-1.370
-1.400,1.100,-0.950
-0.170,-6.930,3.010
-0.790,-3.990,1.170
-1.530,0.030,1.990
-1.140,4.140,0.130
-0.010,4.080,-2.000
-2.280,1.330,1.090
-2.460,-4.210,3.440
-1.760,2.950,-0.600
-2.460,-2.970,2.400
1.010,-8.580,2.430
1.120,-5.740,0.140
1.120,-5.740,0.140
1.210,-5.490,-0.130
1.210,-5.490,-0.130
1.210,-5.490,-0.130
1.210,-5.490,-0.130
1.170,-5.210,-0.270
1.170,-5.210,-0.270
1.170,-5.210,-0.270
1.170,-5.210,-0.270
1.230,-5.000,-0.500
1.230,-5.000,-0.500
1.230,-5.000,-0.500
1.230,-5.000,-0.500
1.140,-4.840,-0.520
1.140,-4.840,-0.520
1.140,-4.840,-0.520
1.140,-4.840,-0.520
1.140,-4.840,-0.520
1.060,-4.710,-0.560
1.060,-4.710,-0.560
1.060,-4.710,-0.560
1.060,-4.710,-0.560
1.060,-4.710,-0.560
1.060,-4.710,-0.560
1.000,-4.590,-0.480
1.000,-4.590,-0.480
1.000,-4.590,-0.480
1.000,-4.590,-0.480
0.810,-4.550,-0.210
0.810,-4.550,-0.210
0.810,-4.550,-0.210
0.810,-4.550,-0.210
,,,
-0.470,2.580,0.020
-0.160,2.840,-1.370
-1.400,1.100,-0.950
-0.170,-6.930,3.010
-0.790,-3.990,1.170
-1.530,0.030,1.990
-1.140,4.140,0.130
-0.010,4.080,-2.000
-2.280,1.330,1.090
-2.460,-4.210,3.440
-1.760,2.950,-0.600
-2.460,-2.970,2.400
1.010,-8.580,2.430
-1.490,4.320,-1.280
-2.030,0.940,0.070
-0.310,-6.040,2.340
1.480,-7.760,2.410
0.110,-4.330,1.260
-0.150,-4.260,1.780
-0.150,-4.260,1.780
-0.150,-4.260,1.780
-0.150,-4.260,1.780
-0.150,-4.260,1.780
-0.380,-4.150,1.980
-0.380,-4.150,1.980
-0.380,-4.150,1.980
-0.380,-4.150,1.980
-0.380,-4.150,1.980
-0.380,-4.150,1.980
-0.370,-4.190,2.040
-0.370,-4.190,2.040
-0.370,-4.190,2.040
-0.370,-4.190,2.040
-0.370,-4.190,2.040
-0.660,-4.300,2.140
-0.660,-4.300,2.140
-0.660,-4.300,2.140
-0.660,-4.300,2.140
-0.600,-4.320,2.090
-0.600,-4.320,2.090
-0.600,-4.320,2.090
-0.830,-4.180,2.100
-0.830,-4.180,2.100
-0.830,-4.180,2.100
-0.830,-4.180,2.100
-0.830,-4.180,2.100
-0.830,-4.180,2.100
-0.910,-3.890,2.080
-0.910,-3.890,2.080
-0.910,-3.890,2.080
,,,
-1.760,2.950,-0.600
-2.460,-2.970,2.400
1.010,-8.580,2.430
-1.490,4.320,-1.280
-2.030,0.940,0.070
-0.310,-6.040,2.340
1.480,-7.760,2.410
0.180,0.300,0.190
0.270,-0.800,0.780
0.290,-1.470,1.020
-0.050,-0.380,0.330
-0.090,-0.310,0.180
0.150,-0.390,0.070
0.000,-0.240,0.350
0.380,-0.340,0.270
1.690,-4.770,1.780
-3.680,5.600,-0.790
-3.010,3.860,-2.610
-3.010,3.860,-2.610
-3.010,3.860,-2.610
-2.870,2.480,-2.140
-2.870,2.480,-2.140
-2.870,2.480,-2.140
-2.870,2.480,-2.140
-2.710,1.840,-2.020
-2.710,1.840,-2.020
-2.710,1.840,-2.020
-2.710,1.840,-2.020
-2.710,1.840,-2.020
-2.560,1.190,-1.750
-2.560,1.190,-1.750
-2.560,1.190,-1.750
-2.560,1.190,-1.750
-2.560,1.190,-1.750
-2.560,1.190,-1.750
-2.350,0.510,-1.500
-2.350,0.510,-1.500
-2.350,0.510,-1.500
-2.350,0.510,-1.500
-2.350,0.510,-1.500
-1.970,-0.720,-0.900
-1.970,-0.720,-0.900
-1.970,-0.720,-0.900
-1.780,-1.260,-0.550
-1.780,-1.260,-0.550
-1.780,-1.260,-0.550
-1.780,-1.260,-0.550
-1.590,-1.770,-0.250
-1.590,-1.770,-0.250
-1.590,-1.770,-0.250
,,,
-2.460,-2.970,2.400
1.010,-8.580,2.430
-1.490,4.320,-1.280
-2.030,0.940,0.070
-0.310,-6.040,2.340
1.480,-7.760,2.410
0.180,0.300,0.190
0.270,-0.800,0.780
0.290,-1.470,1.020
-0.050,-0.380,0.330
-0.090,-0.310,0.180
0.150,-0.390,0.070
0.000,-0.240,0.350
0.380,-0.340,0.270
1.690,-4.770,1.780
-3.680,5.600,-0.790
-4.180,6.420,-2.310
-2.030,3.500,-2.860
-2.030,3.500,-2.860
-2.030,3.500,-2.860
-2.260,3.160,-2.370
-2.260,3.160,-2.370
-2.260,3.160,-2.370
-2.260,3.160,-2.370
-2.260,3.160,-2.370
-2.260,3.160,-2.370
-2.430,2.880,-2.070
-2.430,2.880,-2.070
-2.430,2.880,-2.070
-2.430,2.880,-2.070
-2.320,2.290,-1.680
-2.320,2.290,-1.680
-2.320,2.290,-1.680
-2.320,2.290,-1.680
-2.340,1.200,-0.700
-2.340,1.200,-0.700
-2.340,1.200,-0.700
-2.340,1.200,-0.700
-2.250,0.520,-0.170
-2.250,0.520,-0.170
-2.250,0.520,-0.170
-2.250,0.520,-0.170
-2.250,0.520,-0.170
-2.250,0.520,-0.170
-2.150,-0.130,0.380
-2.150,-0.130,0.380
-2.150,-0.130,0.380
-2.150,-0.130,0.380
-2.150,-0.130,0.380
-2.160,-1.370,1.340
,,,
-1.490,4.320,-1.280
-2.030,0.940,0.070
-0.310,-6.040,2.340
1.480,-7.760,2.410
0.180,0.300,0.190
0.270,-0.800,0.780
0.290,-1.470,1.020
-0.050,-0.380,0.330
-0.090,-0.310,0.180
0.150,-0.390,0.070
0.000,-0.240,0.350
0.380,-0.340,0.270
1.690,-4.770,1.780
-3.680,5.600,-0.790
-4.180,6.420,-2.310
-3.790,2.170,-0.530
-2.160,4.950,-3.080
-2.840,5.250,-0.720
-2.840,5.250,-0.720
-2.580,5.030,-0.510
-2.580,5.030,-0.510
-2.580,5.030,-0.510
-2.580,5.030,-0.510
-2.500,4.710,-0.380
-2.500,4.710,-0.380
-2.500,4.710,-0.380
-2.500,4.710,-0.380
-2.660,4.230,0.110
-2.660,4.230,0.110
-2.660,4.230,0.110
-2.660,4.230,0.110
-2.660,4.230,0.110
-2.660,4.230,0.110
-2.740,3.910,0.400
-2.740,3.910,0.400
-2.740,3.910,0.400
-2.740,3.910,0.400
-2.740,3.910,0.400
-2.800,3.570,0.660
-2.800,3.570,0.660
-2.800,3.570,0.660
-2.800,3.570,0.660
-2.800,3.570,0.660
-2.770,3.070,0.890
-2.770,3.070,0.890
-2.770,3.070,0.890
-2.170,1.580,1.320
-2.170,1.580,1.320
-2.170,1.580,1.320
-2.170,1.580,1.320
,,,
-2.030,0.940,0.070
-0.310,-6.040,2.340
1.480,-7.760,2.410
0.180,0.300,0.190
0.270,-0.800,0.780
0.290,-1.470,1.020
-0.050,-0.380,0.330
-0.090,-0.310,0.180
0.150,-0.390,0.070
0.000,-0.240,0.350
0.380,-0.340,0.270
1.690,-4.770,1.780
-3.680,5.600,-0.790
-4.180,6.420,-2.310
-3.790,2.170,-0.530
-2.160,4.950,-3.080
2.430,-9.110,2.670
0.200,-2.600,0.040
0.200,-2.600,0.040
0.200,-2.600,0.040
0.200,-2.600,0.040
0.200,-2.600,0.040
-0.190,-1.580,0.060
-0.190,-1.580,0.060
-0.190,-1.580,0.060
-0.190,-1.580,0.060
-0.190,-1.580,0.060
-0.190,-1.580,0.060
-0.470,-1.100,0.140
-0.470,-1.100,0.140
-0.470,-1.100,0.140
-0.470,-1.100,0.140
-0.470,-1.100,0.140
-0.600,-0.700,0.140
-0.600,-0.700,0.140
-0.600,-0.700,0.140
-0.580,-0.380,0.070
-0.580,-0.380,0.070
-0.580,-0.380,0.070
-0.580,-0.380,0.070
-0.920,0.380,0.120
-0.920,0.380,0.120
-0.920,0.380,0.120
-0.920,0.380,0.120
-0.920,0.380,0.120
-0.920,0.380,0.120
-0.900,0.880,0.040
-0.900,0.880,0.040
-0.900,0.880,0.040
-0.900,0.880,0.040
,,,
1.480,-7.760,2.410
0.180,0.300,0.190
0.270,-0.800,0.780
0.290,-1.470,1.020
-0.050,-0.380,0.330
-0.090,-0.310,0.180
0.150,-0.390,0.070
0.000,-0.240,0.350
0.380,-0.340,0.270
1.690,-4.770,1.780
-3.680,5.600,-0.790
-4.180,6.420,-2.310
-3.790,2.170,-0.530
-2.160,4.950,-3.080
2.430,-9.110,2.670
-1.710,-2.920,1.500
2.110,-8.310,3.790
0.020,-2.590,1.860
-0.430,-2.040,2.000
-0.430,-2.040,2.000
-0.430,-2.040,2.000
-0.430,-2.040,2.000
-1.600,-0.900,2.180
-1.600,-0.900,2.180
-1.600,-0.900,2.180
-1.600,-0.900,2.180
-1.970,-0.300,2.180
-1.970,-0.300,2.180
-1.970,-0.300,2.180
-1.970,-0.300,2.180
-2.300,0.230,2.140
-2.300,0.230,2.140
-2.300,0.230,2.140
-2.300,0.230,2.140
-2.300,0.230,2.140
-2.700,1.070,1.760
-2.700,1.070,1.760
-2.700,1.070,1.760
-2.700,1.070,1.760
-2.700,1.070,1.760
-2.700,1.070,1.760
-2.820,1.510,1.380
-2.820,1.510,1.380
-2.820,1.510,1.380
-2.820,1.510,1.380
-3.180,2.060,1.180
-3.180,2.060,1.180
-3.180,2.060,1.180
-3.180,2.060,1.180
-3.430,2.930,0.650
,,,
0.270,-0.800,0.780
0.290,-1.470,1.020
-0.050,-0.380,0.330
-0.090,-0.310,0.180
0.150,-0.390,0.070
0.000,-0.240,0.350
0.380,-0.340,0.270
1.690,-4.770,1.780
-3.680,5.600,-0.790
-4.180,6.420,-2.310
-3.790,2.170,-0.530
-2.160,4.950,-3.080
2.430,-9.110,2.670
-1.710,-2.920,1.500
2.110,-8.310,3.790
-1.860,0.340,-0.700
2.410,-7.840,3.990
0.460,-2.470,1.290
0.460,-2.470,1.290
0.270,-2.190,1.090
0.270,-2.190,1.090
0.270,-2.190,1.090
0.270,-2.190,1.090
0.270,-2.190,1.090
0.270,-2.190,1.090
0.160,-1.940,0.880
0.160,-1.940,0.880
0.160,-1.940,0.880
0.160,-1.940,0.880
0.160,-1.940,0.880
0.060,-1.280,0.840
0.060,-1.280,0.840
0.060,-1.280,0.840
0.060,-1.280,0.840
0.060,-1.280,0.840
0.030,-1.200,0.720
0.030,-1.200,0.720
0.030,-1.200,0.720
0.030,-1.200,0.720
-0.020,-1.110,0.810
-0.020,-1.110,0.810
-0.020,-1.110,0.810
-0.090,-1.020,0.800
-0.090,-1.020,0.800
-0.090,-1.020,0.800
-0.090,-1.020,0.800
-0.090,-1.020,0.800
-0.090,-1.020,0.800
-0.360,-0.910,0.930
-0.360,-0.910,0.930
,,,
-1.710,-2.920,1.500
2.110,-8.310,3.790
-1.860,0.340,-0.700
2.410,-7.840,3.990
0.290,1.110,-0.730
0.640,0.660,-0.270
0.420,0.460,0.220
0.160,0.080,0.490
0.260,-0.030,0.220
-0.240,-0.650,0.590
0.380,-0.290,-0.070
0.610,-0.040,-0.780
0.560,0.690,-0.840
-1.420,1.120,1.270
0.000,0.230,1.120
1.360,0.090,0.060
-2.620,5.250,-2.610
-2.370,-2.650,1.340
-2.350,-3.440,1.980
-2.350,-3.440,1.980
-2.350,-3.440,1.980
-2.350,-3.440,1.980
-2.050,-4.190,2.450
-2.050,-4.190,2.450
-2.050,-4.190,2.450
-2.050,-4.190,2.450
-2.050,-4.190,2.450
-2.050,-4.190,2.450
-1.350,-5.640,3.030
-1.350,-5.640,3.030
-1.350,-5.640,3.030
-1.350,-5.640,3.030
-1.350,-5.640,3.030
-0.890,-6.280,3.050
-0.890,-6.280,3.050
-0.890,-6.280,3.050
-0.890,-6.280,3.050
-0.320,-6.920,2.800
-0.320,-6.920,2.800
-0.320,-6.920,2.800
-0.320,-6.920,2.800
0.050,-7.310,2.710
0.050,-7.310,2.710
0.050,-7.310,2.710
0.050,-7.310,2.710
1.210,-7.930,2.170
1.210,-7.930,2.170
1.210,-7.930,2.170
1.210,-7.930,2.170
1.210,-7.930,2.170
,,,
0.390,-0.410,1.690
-0.030,-0.170,1.400
0.220,-0.500,-0.080
-0.250,-0.280,-0.110
-0.250,-0.020,-0.340
0.080,-0.010,-0.120
0.200,-0.090,0.200
-0.010,0.270,0.470
0.340,0.110,0.010
0.020,0.150,0.040
0.160,0.130,-0.270
0.020,-0.160,0.220
1.180,1.460,0.150
-1.890,5.380,-1.040
-3.340,-0.690,-0.890
-2.480,-2.060,-1.220
4.750,-10.350,4.690
-1.480,-2.380,1.010
-1.480,-2.380,1.010
-1.480,-2.380,1.010
-1.770,-0.830,0.390
-1.770,-0.830,0.390
-1.770,-0.830,0.390
-1.770,-0.830,0.390
-1.770,-0.830,0.390
-1.770,-0.830,0.390
-1.990,-0.150,0.110
-1.990,-0.150,0.110
-1.990,-0.150,0.110
-1.990,-0.150,0.110
-1.990,-0.150,0.110
-2.280,0.580,-0.020
-2.280,0.580,-0.020
-2.280,0.580,-0.020
-2.280,0.580,-0.020
-2.280,0.580,-0.020
-2.340,1.190,-0.160
-2.340,1.190,-0.160
-2.340,1.190,-0.160
-2.660,2.200,-0.350
-2.660,2.200,-0.350
-2.660,2.200,-0.350
-2.660,2.200,-0.350
-3.110,2.730,-0.300
-3.110,2.730,-0.300
-3.110,2.730,-0.300
-3.110,2.730,-0.300
-3.110,2.730,-0.300
-3.110,2.730,-0.300
-3.180,3.220,-0.360
,,,
0.220,-0.500,-0.080
-0.250,-0.280,-0.110
-0.250,-0.020,-0.340
0.080,-0.010,-0.120
0.200,-0.090,0.200
-0.010,0.270,0.470
0.340,0.110,0.010
0.020,0.150,0.040
0.160,0.130,-0.270
0.020,-0.160,0.220
1.180,1.460,0.150
-1.890,5.380,-1.040
-3.340,-0.690,-0.890
-2.480,-2.060,-1.220
4.750,-10.350,4.690
-2.920,-0.580,0.700
1.250,-8.440,4.300
0.540,-7.120,3.930
0.540,-7.120,3.930
0.540,-7.120,3.930
0.540,-7.120,3.930
0.050,-6.370,3.600
0.050,-6.370,3.600
0.050,-6.370,3.600
0.050,-6.370,3.600
-0.370,-5.760,3.510
-0.370,-5.760,3.510
-0.370,-5.760,3.510
-0.370,-5.760,3.510
-0.520,-5.280,3.180
-0.520,-5.280,3.180
-0.520,-5.280,3.180
-0.520,-5.280,3.180
-0.860,-4.240,2.750
-0.860,-4.240,2.750
-0.860,-4.240,2.750
-0.860,-4.240,2.750
-0.860,-4.240,2.750
-1.100,-3.690,2.530
-1.100,-3.690,2.530
-1.100,-3.690,2.530
-1.100,-3.690,2.530
-1.100,-3.690,2.530
-1.100,-3.690,2.530
-1.360,-3.050,2.280
-1.360,-3.050,2.280
-1.360,-3.050,2.280
-1.360,-3.050,2.280
-1.360,-3.050,2.280
-1.980,-2.030,2.060
,,,
0.080,-0.010,-0.120
0.200,-0.090,0.200
-0.010,0.270,0.470
0.340,0.110,0.010
0.020,0.150,0.040
0.160,0.130,-0.270
0.020,-0.160,0.220
1.180,1.460,0.150
-1.890,5.380,-1.040
-3.340,-0.690,-0.890
-2.480,-2.060,-1.220
4.750,-10.350,4.690
