ax,ay,az
-0.360,-1.380,2.230
-0.830,-0.250,-1.350
-1.980,-1.890,2.560
-0.270,-1.310,1.000
0.110,0.680,0.510
-0.550,-0.430,1.030
0.820,-0.300,0.130
-0.110,-0.160,2.030
0.960,-1.900,-0.220
1.230,1.270,-2.030
-0.700,0.430,-0.310
-1.510,-0.650,-2.600
-2.550,-0.610,0.070
-3.860,-2.350,0.550
-1.000,-0.450,-0.920
7.190,-0.070,1.290
47.910,-12.520,26.730
-18.880,-27.210,-27.300
-25.660,-32.690,-10.750
-25.660,-32.690,-10.750
-25.660,-32.690,-10.750
-25.660,-32.690,-10.750
-25.660,-32.690,-10.750
-33.580,-32.420,4.660
-33.580,-32.420,4.660
-33.580,-32.420,4.660
-33.580,-32.420,4.660
-32.790,-31.030,-6.260
-32.790,-31.030,-6.260
-32.790,-31.030,-6.260
-32.790,-31.030,-6.260
-23.570,-22.890,-13.200
-23.570,-22.890,-13.200
-23.570,-22.890,-13.200
-23.570,-22.890,-13.200
-16.220,-18.460,-10.920
-16.220,-18.460,-10.920
-16.220,-18.460,-10.920
-16.220,-18.460,-10.920
-16.220,-18.460,-10.920
-12.980,-13.160,-7.120
-12.980,-13.160,-7.120
-12.980,-13.160,-7.120
-12.980,-13.160,-7.120
-12.980,-13.160,-7.120
-12.980,-13.160,-7.120
-10.710,-10.950,-7.330
-10.710,-10.950,-7.330
-10.710,-10.950,-7.330
-10.710,-10.950,-7.330
,,,
7.190,-0.070,1.290
47.910,-12.520,26.730
1.390,-1.420,0.570
1.980,-1.120,0.510
0.600,-1.750,0.920
1.130,-1.210,0.980
0.990,-1.050,0.880
0.880,-1.210,0.640
0.720,-1.350,0.720
1.200,-1.280,0.930
1.230,-0.960,0.580
0.670,-0.910,0.310
0.220,-1.040,1.350
-0.660,-0.960,1.540
0.250,-0.240,-0.550
3.940,-2.070,-1.920
34.960,-7.410,3.310
-6.570,-28.470,-31.690
-10.810,-22.890,-33.710
-10.810,-22.890,-33.710
-10.810,-22.890,-33.710
-10.810,-22.890,-33.710
-10.810,-22.890,-33.710
-10.810,-22.890,-33.710
-30.190,-33.970,-18.750
-30.190,-33.970,-18.750
-30.190,-33.970,-18.750
-32.430,-32.920,-10.550
-32.430,-32.920,-10.550
-32.430,-32.920,-10.550
-32.430,-32.920,-10.550
-29.410,-31.190,-13.960
-29.410,-31.190,-13.960
-29.410,-31.190,-13.960
-29.410,-31.190,-13.960
-24.410,-25.460,-19.980
-24.410,-25.460,-19.980
-24.410,-25.460,-19.980
-24.410,-25.460,-19.980
-24.410,-25.460,-19.980
-24.410,-25.460,-19.980
-14.530,-25.030,-15.690
-14.530,-25.030,-15.690
-14.530,-25.030,-15.690
-14.530,-25.030,-15.690
-14.530,-25.030,-15.690
-18.030,-24.960,-11.890
-18.030,-24.960,-11.890
-18.030,-24.960,-11.890
-18.030,-24.960,-11.890
,,,
3.940,-2.070,-1.920
34.960,-7.410,3.310
2.470,-1.480,0.200
1.440,-1.250,0.790
0.950,-1.320,1.120
0.730,-1.240,0.720
0.780,-0.990,0.310
0.390,-0.960,0.240
0.990,-0.860,0.370
0.350,-0.920,0.480
0.960,-0.640,0.050
0.780,-0.670,-0.440
0.250,-0.760,0.610
1.050,-0.920,0.450
1.940,-1.070,0.120
13.490,-0.330,0.070
37.890,-30.790,3.380
-24.950,-21.650,-12.350
-24.950,-21.650,-12.350
-20.160,-17.910,-13.670
-20.160,-17.910,-13.670
-20.160,-17.910,-13.670
-20.160,-17.910,-13.670
-20.160,-17.910,-13.670
-16.070,-14.950,-14.160
-16.070,-14.950,-14.160
-16.070,-14.950,-14.160
-16.070,-14.950,-14.160
-13.470,-14.010,-12.560
-13.470,-14.010,-12.560
-13.470,-14.010,-12.560
-13.470,-14.010,-12.560
-11.790,-14.120,-10.800
-11.790,-14.120,-10.800
-11.790,-14.120,-10.800
-11.790,-14.120,-10.800
-10.220,-13.800,-7.940
-10.220,-13.800,-7.940
-10.220,-13.800,-7.940
-10.220,-13.800,-7.940
-10.220,-13.800,-7.940
-11.600,-14.010,-6.340
-11.600,-14.010,-6.340
-11.600,-14.010,-6.340
-11.600,-14.010,-6.340
-11.600,-14.010,-6.340
-11.600,-14.010,-6.340
-12.490,-13.380,-5.580
-12.490,-13.380,-5.580
-12.490,-13.380,-5.580
,,,
0.250,-0.760,0.610
1.050,-0.920,0.450
1.940,-1.070,0.120
13.490,-0.330,0.070
37.890,-30.790,3.380
2.170,-1.180,-1.000
1.450,-0.850,-0.470
1.550,-1.120,-0.130
1.080,-0.600,-0.310
-0.050,-0.450,-0.020
0.010,-0.670,0.080
0.670,-0.930,-0.160
2.460,-1.010,-0.030
2.730,-1.080,0.260
2.280,-1.530,0.400
16.140,0.130,-3.380
21.620,-18.660,-5.530
-17.960,-13.260,-7.930
-17.960,-13.260,-7.930
-17.960,-13.260,-7.930
-17.960,-13.260,-7.930
-3.710,-13.340,-1.460
-3.710,-13.340,-1.460
-3.710,-13.340,-1.460
-3.710,-13.340,-1.460
-3.710,-13.340,-1.460
-3.710,-13.340,-1.460
-2.640,-16.350,1.080
-2.640,-16.350,1.080
-2.640,-16.350,1.080
-2.640,-16.350,1.080
-4.640,-19.220,2.770
-4.640,-19.220,2.770
-4.640,-19.220,2.770
-4.640,-19.220,2.770
-11.390,-20.460,5.140
-11.390,-20.460,5.140
-11.390,-20.460,5.140
-12.380,-19.040,4.900
-12.380,-19.040,4.900
-12.380,-19.040,4.900
-12.380,-19.040,4.900
-12.380,-19.040,4.900
-12.380,-19.040,4.900
-11.090,-16.770,4.580
-11.090,-16.770,4.580
-11.090,-16.770,4.580
-11.090,-16.770,4.580
-11.090,-16.770,4.580
-11.090,-16.770,4.580
,,,
0.570,-0.690,-0.210
-0.380,-0.590,-0.250
0.140,-0.480,-0.710
0.950,-0.420,-0.810
0.540,-0.550,-0.350
0.410,-0.490,-0.590
0.030,-0.430,-0.700
0.190,-0.550,-0.840
0.420,-0.380,-0.180
0.430,-0.420,-0.800
0.020,-0.510,-0.520
0.750,-0.180,0.910
1.140,-0.590,2.880
-2.860,-0.960,4.410
2.670,0.600,-4.410
13.350,-0.580,-0.520
26.680,-12.740,5.240
-17.310,-19.100,-12.020
-18.870,-16.960,-13.570
-18.870,-16.960,-13.570
-18.870,-16.960,-13.570
-18.870,-16.960,-13.570
-21.130,-17.970,-9.480
-21.130,-17.970,-9.480
-21.130,-17.970,-9.480
-21.130,-17.970,-9.480
-21.130,-17.970,-9.480
-21.130,-17.970,-9.480
-31.540,-27.280,2.400
-31.540,-27.280,2.400
-31.540,-27.280,2.400
-31.540,-27.280,2.400
-31.540,-27.280,2.400
-32.810,-25.630,2.670
-32.810,-25.630,2.670
-32.810,-25.630,2.670
-32.810,-25.630,2.670
-25.960,-19.760,-0.990
-25.960,-19.760,-0.990
-25.960,-19.760,-0.990
-25.960,-19.760,-0.990
-15.520,-14.260,-4.260
-15.520,-14.260,-4.260
-15.520,-14.260,-4.260
-15.520,-14.260,-4.260
-13.110,-13.020,-3.370
-13.110,-13.020,-3.370
-13.110,-13.020,-3.370
-13.110,-13.020,-3.370
-13.110,-13.020,-3.370
,,,
-2.860,-0.960,4.410
2.670,0.600,-4.410
13.350,-0.580,-0.520
26.680,-12.740,5.240
1.510,-0.900,-0.760
1.470,-0.860,-0.770
1.040,-0.880,-0.530
0.880,-0.730,-0.030
0.610,-0.610,0.020
0.700,-0.490,0.010
0.350,-0.570,0.100
0.240,-0.520,-0.040
0.650,-0.540,-0.130
0.120,-0.560,0.060
0.860,-1.160,1.170
2.200,-2.460,-0.050
28.140,0.190,-3.890
-1.470,-19.740,-18.350
-1.470,-19.740,-18.350
-1.470,-19.740,-18.350
-1.470,-19.740,-18.350
-5.460,-19.100,-18.540
-5.460,-19.100,-18.540
-5.460,-19.100,-18.540
-5.460,-19.100,-18.540
-18.300,-25.990,-15.500
-18.300,-25.990,-15.500
-18.300,-25.990,-15.500
-18.300,-25.990,-15.500
-18.300,-25.990,-15.500
-24.730,-27.060,-10.490
-24.730,-27.060,-10.490
-24.730,-27.060,-10.490
-24.730,-27.060,-10.490
-24.730,-27.060,-10.490
-24.730,-27.060,-10.490
-27.230,-24.780,-6.020
-27.230,-24.780,-6.020
-27.230,-24.780,-6.020
-27.230,-24.780,-6.020
-22.430,-20.180,-5.440
-22.430,-20.180,-5.440
-22.430,-20.180,-5.440
-22.430,-20.180,-5.440
-19.970,-16.470,-6.180
-19.970,-16.470,-6.180
-19.970,-16.470,-6.180
-19.970,-16.470,-6.180
-17.980,-13.900,-6.380
-17.980,-13.900,-6.380
,,,
0.350,-0.570,0.100
0.240,-0.520,-0.040
0.650,-0.540,-0.130
0.120,-0.560,0.060
0.860,-1.160,1.170
2.200,-2.460,-0.050
28.140,0.190,-3.890
2.020,-0.900,0.030
1.820,-0.990,0.050
2.310,-0.790,0.130
0.780,-0.860,-0.430
0.390,-0.670,0.010
0.220,-0.620,-0.180
1.500,-1.270,0.230
2.610,-1.900,-0.970
14.350,-2.260,-4.310
13.690,-18.970,-10.440
-19.590,-18.330,3.890
-19.590,-18.330,3.890
-18.790,-17.130,3.830
-18.790,-17.130,3.830
-18.790,-17.130,3.830
-18.790,-17.130,3.830
-16.950,-15.340,3.510
-16.950,-15.340,3.510
-16.950,-15.340,3.510
-16.950,-15.340,3.510
-12.330,-12.420,3.630
-12.330,-12.420,3.630
-12.330,-12.420,3.630
-12.330,-12.420,3.630
-10.480,-11.230,3.620
-10.480,-11.230,3.620
-10.480,-11.230,3.620
-10.480,-11.230,3.620
-10.480,-11.230,3.620
-8.570,-10.120,3.470
-8.570,-10.120,3.470
-8.570,-10.120,3.470
-8.570,-10.120,3.470
-8.570,-10.120,3.470
-8.570,-10.120,3.470
-6.220,-7.400,1.850
-6.220,-7.400,1.850
-6.220,-7.400,1.850
-6.220,-7.400,1.850
-8.970,-8.290,2.180
-8.970,-8.290,2.180
-8.970,-8.290,2.180
-8.970,-8.290,2.180
,,,
1.270,-0.080,-1.200
4.290,-0.670,-0.510
19.160,-1.970,-3.470
6.590,-7.640,-5.400
-11.000,-10.300,-3.660
-8.780,-6.310,-0.140
-2.900,-1.040,1.580
-1.580,0.170,0.700
-1.610,-0.380,0.240
-2.930,-1.820,1.200
-4.860,-3.080,1.660
-3.400,-3.270,0.680
-1.320,-3.460,-1.940
3.820,-2.400,-1.990
5.960,-3.060,-2.110
10.060,-3.820,0.020
21.240,-4.300,-1.630
-0.480,-15.370,-13.950
-0.480,-15.370,-13.950
-5.680,-15.840,-13.670
-5.680,-15.840,-13.670
-5.680,-15.840,-13.670
-5.680,-15.840,-13.670
-10.380,-16.300,-12.620
-10.380,-16.300,-12.620
-10.380,-16.300,-12.620
-10.380,-16.300,-12.620
-10.380,-16.300,-12.620
-15.870,-16.830,-8.170
-15.870,-16.830,-8.170
-15.870,-16.830,-8.170
-15.870,-16.830,-8.170
-15.870,-16.830,-8.170
-15.870,-16.830,-8.170
-17.820,-16.790,-6.380
-17.820,-16.790,-6.380
-17.820,-16.790,-6.380
-17.820,-16.790,-6.380
-18.880,-16.570,-5.380
-18.880,-16.570,-5.380
-18.880,-16.570,-5.380
-18.880,-16.570,-5.380
-19.160,-15.230,-5.560
-19.160,-15.230,-5.560
-19.160,-15.230,-5.560
-19.160,-15.230,-5.560
-15.300,-11.050,-4.140
-15.300,-11.050,-4.140
-15.300,-11.050,-4.140
-15.300,-11.050,-4.140
,,,
-1.580,0.170,0.700
-1.610,-0.380,0.240
-2.930,-1.820,1.200
-4.860,-3.080,1.660
-3.400,-3.270,0.680
-1.320,-3.460,-1.940
3.820,-2.400,-1.990
5.960,-3.060,-2.110
10.060,-3.820,0.020
21.240,-4.300,-1.630
1.600,-0.200,0.220
1.800,-0.050,0.180
2.050,-0.310,0.360
1.450,-0.350,-0.300
1.070,-1.800,0.190
10.250,-0.040,-2.180
27.100,-6.620,-2.420
-10.940,-16.490,-7.890
-10.940,-16.490,-7.890
-10.940,-16.490,-7.890
-14.810,-17.510,-5.810
-14.810,-17.510,-5.810
-14.810,-17.510,-5.810
-18.060,-17.780,-4.540
-18.060,-17.780,-4.540
-18.060,-17.780,-4.540
-18.060,-17.780,-4.540
-16.900,-14.490,-4.940
-16.900,-14.490,-4.940
-16.900,-14.490,-4.940
-16.900,-14.490,-4.940
-15.110,-12.010,-5.490
-15.110,-12.010,-5.490
-15.110,-12.010,-5.490
-15.110,-12.010,-5.490
-15.110,-12.010,-5.490
-15.110,-12.010,-5.490
-14.000,-11.500,-6.480
-14.000,-11.500,-6.480
-14.000,-11.500,-6.480
-14.000,-11.500,-6.480
-14.000,-11.500,-6.480
-13.700,-11.380,-5.810
-13.700,-11.380,-5.810
-13.700,-11.380,-5.810
-13.700,-11.380,-5.810
-13.700,-11.380,-5.810
-12.800,-11.340,-4.550
-12.800,-11.340,-4.550
-12.800,-11.340,-4.550
,,,
-2.270,-0.360,0.470
0.670,0.330,0.520
-4.270,-1.130,0.610
0.040,0.030,2.110
1.070,-1.720,0.850
0.730,0.040,0.480
-0.620,-1.350,4.160
1.660,0.560,1.250
-2.960,-0.750,0.080
-0.790,-1.830,0.440
0.000,-4.540,1.210
-2.290,-0.510,0.590
-3.200,-1.530,0.580
-3.580,-3.400,0.240
-4.040,-1.750,1.850
9.860,0.970,3.880
34.900,-13.240,13.320
-27.270,-23.110,-7.890
-27.270,-23.110,-7.890
-27.140,-20.700,-6.180
-27.140,-20.700,-6.180
-27.140,-20.700,-6.180
-20.070,-16.690,-6.660
-20.070,-16.690,-6.660
-20.070,-16.690,-6.660
-20.070,-16.690,-6.660
-20.070,-16.690,-6.660
-20.070,-16.690,-6.660
-12.540,-15.010,-5.650
-12.540,-15.010,-5.650
-12.540,-15.010,-5.650
-12.540,-15.010,-5.650
-12.540,-15.010,-5.650
-11.450,-13.870,-3.460
-11.450,-13.870,-3.460
-11.450,-13.870,-3.460
-11.450,-13.870,-3.460
-11.450,-13.870,-3.460
-11.210,-13.250,-1.430
-11.210,-13.250,-1.430
-11.210,-13.250,-1.430
-11.210,-13.250,-1.430
-10.340,-12.770,-0.370
-10.340,-12.770,-0.370
-10.340,-12.770,-0.370
-9.360,-10.870,-0.560
-9.360,-10.870,-0.560
-9.360,-10.870,-0.560
-9.360,-10.870,-0.560
-9.360,-10.870,-0.560
,,,
0.370,-0.510,0.180
0.540,-0.440,0.140
0.590,-0.370,0.080
0.420,-0.310,0.010
0.380,-0.320,0.080
0.590,-0.370,-0.050
0.320,-0.390,-0.050
0.130,-0.120,0.010
0.050,-0.040,-0.250
0.020,-0.100,-0.050
-0.020,-0.110,-0.130
-0.080,-0.080,0.020
0.380,-0.220,0.300
0.890,-0.300,-0.050
4.720,-0.260,-0.510
16.940,-2.140,0.120
0.390,-16.290,-10.670
-7.290,-8.890,-5.420
-7.290,-8.890,-5.420
-7.290,-8.890,-5.420
-7.290,-8.890,-5.420
-5.420,-7.050,-5.580
-5.420,-7.050,-5.580
-5.420,-7.050,-5.580
-5.420,-7.050,-5.580
-5.420,-7.050,-5.580
-5.420,-7.050,-5.580
-7.580,-8.690,-5.210
-7.580,-8.690,-5.210
-7.580,-8.690,-5.210
-7.580,-8.690,-5.210
-10.070,-10.040,-3.910
-10.070,-10.040,-3.910
-10.070,-10.040,-3.910
-10.070,-10.040,-3.910
-10.100,-8.430,-3.070
-10.100,-8.430,-3.070
-10.100,-8.430,-3.070
-10.100,-8.430,-3.070
-9.710,-7.980,-2.920
-9.710,-7.980,-2.920
-9.710,-7.980,-2.920
-9.710,-7.980,-2.920
-9.710,-7.980,-2.920
-9.900,-7.790,-2.680
-9.900,-7.790,-2.680
-9.900,-7.790,-2.680
-9.900,-7.790,-2.680
-9.900,-7.790,-2.680
-9.900,-7.790,-2.680
,,,
0.430,-0.180,-0.010
0.350,-0.080,-0.140
0.120,-0.150,-0.040
0.030,-0.040,-0.220
0.240,-0.180,0.030
0.640,0.110,-0.320
0.100,0.030,-0.320
0.210,-0.170,-0.100
0.410,-0.200,-0.060
-0.120,0.040,0.140
0.420,-0.040,-0.660
0.520,0.020,-1.110
1.100,-0.430,0.150
2.640,-0.560,-0.590
10.500,-0.360,-2.850
11.470,-8.540,-3.010
-10.740,-10.700,-8.590
-8.720,-6.240,-1.700
-8.720,-6.240,-1.700
-8.720,-6.240,-1.700
-8.720,-6.240,-1.700
-8.000,-5.050,-1.500
-8.000,-5.050,-1.500
-8.000,-5.050,-1.500
-8.000,-5.050,-1.500
-6.140,-3.190,-1.170
-6.140,-3.190,-1.170
-6.140,-3.190,-1.170
-6.140,-3.190,-1.170
-5.710,-2.630,-0.970
-5.710,-2.630,-0.970
-5.710,-2.630,-0.970
-4.920,-1.900,-0.610
-4.920,-1.900,-0.610
-4.920,-1.900,-0.610
-4.920,-1.900,-0.610
-4.920,-1.900,-0.610
-4.920,-1.900,-0.610
-3.620,-1.210,0.070
-3.620,-1.210,0.070
-3.620,-1.210,0.070
-3.620,-1.210,0.070
-3.620,-1.210,0.070
-3.600,-1.550,0.370
-3.600,-1.550,0.370
-3.600,-1.550,0.370
-3.600,-1.550,0.370
-3.600,-1.550,0.370
-3.290,-1.400,0.610
-3.290,-1.400,0.610
,,,
2.640,-0.560,-0.590
10.500,-0.360,-2.850
11.470,-8.540,-3.010
-10.740,-10.700,-8.590
-0.820,-0.660,-0.340
0.220,-0.100,-0.730
0.200,0.160,-0.940
0.080,0.000,-0.450
0.300,-0.190,-0.160
0.300,-0.030,-0.180
0.260,0.090,-0.240
0.180,-0.090,-0.060
0.960,0.190,-0.330
1.950,0.450,-0.460
-0.460,-1.000,0.460
5.670,1.440,-1.920
20.670,-3.180,-2.310
-1.760,-11.980,-10.700
-4.250,-14.390,-7.370
-4.250,-14.390,-7.370
-4.250,-14.390,-7.370
-4.250,-14.390,-7.370
-4.250,-14.390,-7.370
-4.250,-14.390,-7.370
-11.870,-20.400,-2.020
-11.870,-20.400,-2.020
-11.870,-20.400,-2.020
-11.870,-20.400,-2.020
-12.900,-20.310,-0.410
-12.900,-20.310,-0.410
-12.900,-20.310,-0.410
-12.900,-20.310,-0.410
-12.540,-19.780,-0.850
-12.540,-19.780,-0.850
-12.540,-19.780,-0.850
-15.320,-19.570,-5.400
-15.320,-19.570,-5.400
-15.320,-19.570,-5.400
-15.320,-19.570,-5.400
-15.320,-19.570,-5.400
-15.320,-19.570,-5.400
-16.160,-17.060,-7.430
-16.160,-17.060,-7.430
-16.160,-17.060,-7.430
-16.160,-17.060,-7.430
-16.160,-17.060,-7.430
-15.480,-14.130,-7.520
-15.480,-14.130,-7.520
-15.480,-14.130,-7.520
-15.480,-14.130,-7.520
,,,
-0.050,-0.370,-0.660
0.120,-0.240,-0.740
0.540,0.270,-0.860
1.220,-0.020,-0.300
0.900,-0.110,0.240
0.850,-0.150,0.070
0.280,-0.060,-0.160
0.830,-0.080,0.210
0.290,-0.350,0.050
0.160,-0.140,0.240
-0.290,-0.190,-0.070
0.400,-0.320,-0.730
0.510,-0.750,-0.560
4.270,-1.230,0.520
11.080,-5.070,3.170
-3.270,-8.820,-8.040
-10.170,-13.610,2.120
-4.880,-3.910,0.540
-4.880,-3.910,0.540
-4.880,-3.910,0.540
-4.880,-3.910,0.540
-4.880,-3.910,0.540
-4.400,-3.370,0.570
-4.400,-3.370,0.570
-4.400,-3.370,0.570
-3.870,-3.020,0.500
-3.870,-3.020,0.500
-3.870,-3.020,0.500
-3.870,-3.020,0.500
-3.160,-2.760,0.540
-3.160,-2.760,0.540
-3.160,-2.760,0.540
-3.160,-2.760,0.540
-2.630,-2.390,0.710
-2.630,-2.390,0.710
-2.630,-2.390,0.710
-2.630,-2.390,0.710
-2.630,-2.390,0.710
-2.630,-2.390,0.710
-2.380,-2.240,0.830
-2.380,-2.240,0.830
-2.380,-2.240,0.830
-2.380,-2.240,0.830
-2.380,-2.240,0.830
-2.390,-2.250,0.960
-2.390,-2.250,0.960
-2.390,-2.250,0.960
-2.390,-2.250,0.960
-1.930,-1.870,1.070
-1.930,-1.870,1.070
,,,
0.050,-0.040,-0.040
0.000,-0.060,0.140
0.000,-0.040,0.180
0.010,-0.060,0.180
0.000,-0.060,0.170
0.010,-0.080,0.200
0.100,-0.110,0.220
0.010,0.000,0.180
0.200,-0.120,0.350
0.180,0.220,0.330
-4.710,1.230,2.670
-0.170,-0.430,0.350
0.710,-2.270,2.470
-5.600,-1.330,4.040
-3.510,-4.820,-0.870
7.330,-4.680,-6.460
12.250,-8.680,-16.230
-10.730,-2.310,16.040
-10.730,-2.310,16.040
-10.730,-2.310,16.040
-10.730,-2.310,16.040
-10.730,-2.310,16.040
-11.210,0.190,16.680
-11.210,0.190,16.680
-11.210,0.190,16.680
-11.210,0.190,16.680
-11.210,0.190,16.680
-11.210,0.190,16.680
-9.300,-2.250,16.360
-9.300,-2.250,16.360
-9.300,-2.250,16.360
-9.300,-2.250,16.360
-7.990,-1.320,13.550
-7.990,-1.320,13.550
-7.990,-1.320,13.550
-7.990,-1.320,13.550
-7.490,-0.190,9.120
-7.490,-0.190,9.120
-7.490,-0.190,9.120
-6.220,-0.800,7.080
-6.220,-0.800,7.080
-6.220,-0.800,7.080
-6.220,-0.800,7.080
-6.220,-0.800,7.080
-6.220,-0.800,7.080
-4.790,-0.400,5.350
-4.790,-0.400,5.350
-4.790,-0.400,5.350
-4.790,-0.400,5.350
-4.790,-0.400,5.350
,,,
-0.760,-0.210,1.360
1.040,-1.020,0.530
0.640,-7.740,1.450
2.180,-1.900,0.560
-0.730,-0.850,-0.310
-0.080,0.440,0.700
0.600,-1.570,-0.220
-4.270,-3.660,0.260
0.970,-1.350,-0.290
1.640,0.390,0.560
2.000,1.950,-0.950
0.860,0.870,0.100
0.730,-0.020,1.040
-1.890,-2.590,0.920
-4.000,-2.020,0.870
1.580,-0.690,0.800
24.370,3.330,-1.240
15.910,-20.610,-0.640
15.910,-20.610,-0.640
11.980,-19.720,-3.640
11.980,-19.720,-3.640
11.980,-19.720,-3.640
11.980,-19.720,-3.640
11.980,-19.720,-3.640
11.980,-19.720,-3.640
7.280,-19.710,-9.130
7.280,-19.710,-9.130
7.280,-19.710,-9.130
7.280,-19.710,-9.130
-7.570,-20.400,-19.640
-7.570,-20.400,-19.640
-7.570,-20.400,-19.640
-7.570,-20.400,-19.640
-12.760,-16.840,-20.830
-12.760,-16.840,-20.830
-12.760,-16.840,-20.830
-12.760,-16.840,-20.830
-18.330,-17.510,-15.020
-18.330,-17.510,-15.020
-18.330,-17.510,-15.020
-18.330,-17.510,-15.020
-18.330,-17.510,-15.020
-24.090,-23.160,-6.460
-24.090,-23.160,-6.460
-24.090,-23.160,-6.460
-24.090,-23.160,-6.460
-24.090,-23.160,-6.460
-26.410,-29.060,3.590
-26.410,-29.060,3.590
-26.410,-29.060,3.590
,,,
-4.270,-3.660,0.260
0.970,-1.350,-0.290
1.640,0.390,0.560
2.000,1.950,-0.950
0.860,0.870,0.100
0.730,-0.020,1.040
-1.890,-2.590,0.920
-4.000,-2.020,0.870
1.580,-0.690,0.800
24.370,3.330,-1.240
1.470,-0.350,0.320
0.790,-0.610,0.370
1.180,-0.510,0.500
-1.010,-0.910,0.130
-0.100,-0.760,-0.420
9.810,1.250,-1.100
21.220,-21.200,5.380
-13.180,-17.650,-3.490
-13.180,-17.650,-3.490
-13.180,-17.650,-3.490
-13.180,-17.650,-3.490
-13.580,-16.390,-3.740
-13.580,-16.390,-3.740
-13.580,-16.390,-3.740
-13.580,-16.390,-3.740
-13.580,-16.390,-3.740
-13.580,-16.390,-3.740
-14.680,-16.190,-3.520
-14.680,-16.190,-3.520
-14.680,-16.190,-3.520
-14.680,-16.190,-3.520
-14.680,-16.190,-3.520
-14.760,-15.730,-2.310
-14.760,-15.730,-2.310
-14.760,-15.730,-2.310
-14.760,-15.730,-2.310
-14.760,-15.730,-2.310
-12.240,-13.140,-0.330
-12.240,-13.140,-0.330
-12.240,-13.140,-0.330
-11.110,-11.990,0.140
-11.110,-11.990,0.140
-11.110,-11.990,0.140
-11.110,-11.990,0.140
-9.520,-10.910,0.010
-9.520,-10.910,0.010
-9.520,-10.910,0.010
-9.520,-10.910,0.010
-9.520,-10.910,0.010
-9.520,-10.910,0.010
,,,
-4.000,-2.020,0.870
1.580,-0.690,0.800
24.370,3.330,-1.240
1.470,-0.350,0.320
0.790,-0.610,0.370
1.180,-0.510,0.500
-1.010,-0.910,0.130
-0.100,-0.760,-0.420
9.810,1.250,-1.100
21.220,-21.200,5.380
0.460,-0.510,0.570
0.760,-1.000,0.550
0.300,-0.600,0.470
-0.420,-0.540,0.170
3.650,-0.930,0.400
11.490,-0.190,0.200
16.150,-12.030,0.440
-0.690,-10.370,0.930
0.290,-13.590,2.130
0.290,-13.590,2.130
0.290,-13.590,2.130
-1.900,-16.730,2.870
-1.900,-16.730,2.870
-1.900,-16.730,2.870
-1.900,-16.730,2.870
-10.500,-18.600,4.770
-10.500,-18.600,4.770
-10.500,-18.600,4.770
-10.500,-18.600,4.770
-14.580,-18.840,5.070
-14.580,-18.840,5.070
-14.580,-18.840,5.070
-14.580,-18.840,5.070
-14.580,-18.840,5.070
-14.580,-18.840,5.070
-16.670,-17.000,5.030
-16.670,-17.000,5.030
-16.670,-17.000,5.030
-16.670,-17.000,5.030
-16.670,-17.000,5.030
-19.930,-17.450,4.450
-19.930,-17.450,4.450
-19.930,-17.450,4.450
-19.930,-17.450,4.450
-20.520,-16.910,5.220
-20.520,-16.910,5.220
-20.520,-16.910,5.220
-20.520,-16.910,5.220
-17.180,-13.400,4.880
-17.180,-13.400,4.880
,,,
16.150,-12.030,0.440
0.170,-0.580,0.600
0.580,-0.930,0.690
0.420,0.060,0.280
1.270,1.020,-0.030
12.520,-4.940,1.770
-0.700,-9.340,-1.570
-8.480,-11.360,1.130
-3.740,-2.480,1.940
-1.530,-0.680,1.340
-1.260,-0.250,0.550
-0.850,-0.160,0.210
-2.670,-1.980,0.890
-3.520,-2.840,0.510
0.320,-2.530,-0.200
8.340,-1.120,1.320
12.530,-5.410,7.340
9.100,-6.700,-0.310
8.000,-6.660,-0.690
8.000,-6.660,-0.690
8.000,-6.660,-0.690
8.000,-6.660,-0.690
5.680,-7.670,-1.510
5.680,-7.670,-1.510
5.680,-7.670,-1.510
5.680,-7.670,-1.510
4.540,-7.090,-2.080
4.540,-7.090,-2.080
4.540,-7.090,-2.080
3.770,-7.220,-2.810
3.770,-7.220,-2.810
3.770,-7.220,-2.810
3.770,-7.220,-2.810
3.770,-7.220,-2.810
3.770,-7.220,-2.810
2.400,-6.880,-3.400
2.400,-6.880,-3.400
2.400,-6.880,-3.400
2.400,-6.880,-3.400
2.400,-6.880,-3.400
1.250,-7.760,-3.400
1.250,-7.760,-3.400
1.250,-7.760,-3.400
1.250,-7.760,-3.400
1.250,-7.760,-3.400
-2.500,-11.080,-3.770
-2.500,-11.080,-3.770
-2.500,-11.080,-3.770
-2.500,-11.080,-3.770
-13.780,-17.080,-3.400
,,,
-3.520,-2.840,0.510
0.320,-2.530,-0.200
8.340,-1.120,1.320
12.530,-5.410,7.340
0.280,0.260,-0.820
0.370,0.040,-0.340
-0.120,-0.180,-0.260
-0.380,-0.920,0.690
-0.620,1.000,-0.300
-1.480,-0.380,0.620
-0.790,0.470,-0.110
-0.210,-0.440,-0.520
1.200,-0.640,-0.390
3.290,-0.070,-0.210
10.430,-2.210,2.310
6.140,-11.140,1.430
-12.520,-4.230,-8.660
-5.440,-7.070,0.120
-5.440,-7.070,0.120
-5.440,-7.070,0.120
-5.440,-7.070,0.120
-5.350,-6.560,0.640
-5.350,-6.560,0.640
-5.350,-6.560,0.640
-5.350,-6.560,0.640
-5.590,-6.090,1.170
-5.590,-6.090,1.170
-5.590,-6.090,1.170
-5.850,-5.500,1.690
-5.850,-5.500,1.690
-5.850,-5.500,1.690
-5.850,-5.500,1.690
-5.520,-4.270,1.990
-5.520,-4.270,1.990
-5.520,-4.270,1.990
-5.520,-4.270,1.990
-5.520,-4.270,1.990
-5.520,-4.270,1.990
-4.870,-3.480,2.040
-4.870,-3.480,2.040
-4.870,-3.480,2.040
-4.870,-3.480,2.040
-4.870,-3.480,2.040
-3.950,-2.650,1.960
-3.950,-2.650,1.960
-3.950,-2.650,1.960
-3.950,-2.650,1.960
-2.020,-1.430,1.790
-2.020,-1.430,1.790
-2.020,-1.430,1.790
,,,
-0.390,-0.150,-0.230
0.180,-0.210,0.000
-0.370,-0.330,0.210
-0.140,-0.030,-0.030
-0.540,0.010,0.150
-0.100,-0.060,0.170
-0.260,0.220,-0.310
0.050,-0.180,0.250
-0.330,0.130,-0.290
-0.460,-0.090,0.540
0.040,0.050,0.390
-1.260,-0.490,0.890
-4.300,-2.050,2.270
-1.490,-0.070,-1.310
5.980,0.740,-1.630
18.690,-0.820,3.870
7.770,-14.740,-5.990
-11.140,-16.130,-0.140
-11.140,-16.130,-0.140
-11.140,-16.130,-0.140
-11.140,-16.130,-0.140
-11.140,-16.130,-0.140
-10.790,-15.120,-1.290
-10.790,-15.120,-1.290
-10.790,-15.120,-1.290
-10.790,-15.120,-1.290
-9.920,-14.040,-2.040
-9.920,-14.040,-2.040
-9.920,-14.040,-2.040
-9.920,-14.040,-2.040
-8.520,-12.270,-2.090
-8.520,-12.270,-2.090
-8.520,-12.270,-2.090
-8.520,-12.270,-2.090
-8.740,-11.450,-1.150
-8.740,-11.450,-1.150
-8.740,-11.450,-1.150
-8.740,-11.450,-1.150
-8.740,-11.450,-1.150
-9.580,-11.780,-0.100
-9.580,-11.780,-0.100
-9.580,-11.780,-0.100
-9.580,-11.780,-0.100
-9.580,-11.780,-0.100
-9.580,-11.780,-0.100
-9.830,-11.490,0.700
-9.830,-11.490,0.700
-9.830,-11.490,0.700
-9.830,-11.490,0.700
-9.580,-9.970,1.240
,,,
-0.330,0.130,-0.290
-0.460,-0.090,0.540
0.040,0.050,0.390
-1.260,-0.490,0.890
-4.300,-2.050,2.270
-1.490,-0.070,-1.310
5.980,0.740,-1.630
18.690,-0.820,3.870
7.770,-14.740,-5.990
1.430,-0.590,-0.070
0.980,-0.490,0.190
0.300,-0.660,0.070
0.840,-0.300,-0.290
3.770,-1.740,1.520
13.990,-5.470,2.250
3.470,-7.660,-6.430
-9.220,-12.230,-3.880
-2.910,-3.300,-0.170
-2.490,-2.880,-0.070
-2.490,-2.880,-0.070
-2.490,-2.880,-0.070
-2.490,-2.880,-0.070
-2.490,-2.880,-0.070
-2.100,-2.390,0.430
-2.100,-2.390,0.430
-2.100,-2.390,0.430
-2.100,-2.390,0.430
-2.100,-2.390,0.430
-2.100,-2.390,0.430
-1.780,-2.300,0.650
-1.780,-2.300,0.650
-1.780,-2.300,0.650
-1.780,-2.300,0.650
-1.630,-2.190,0.840
-1.630,-2.190,0.840
-1.630,-2.190,0.840
-1.630,-2.190,0.840
-1.270,-1.890,1.080
-1.270,-1.890,1.080
-1.270,-1.890,1.080
-1.270,-1.890,1.080
-0.890,-1.550,1.140
-0.890,-1.550,1.140
-0.890,-1.550,1.140
-0.890,-1.550,1.140
-0.890,-1.550,1.140
-0.310,-1.210,1.040
-0.310,-1.210,1.040
-0.310,-1.210,1.040
-0.310,-1.210,1.040
,,,
-0.510,-0.640,-0.170
-0.180,-0.400,-0.300
0.570,-1.010,0.250
8.490,0.440,-0.420
13.440,-7.100,-1.430
-1.750,-8.990,-6.020
-11.480,-10.470,-2.200
-0.710,-1.950,0.390
1.160,-0.680,0.450
0.390,-1.000,-0.310
-2.820,-4.100,-0.350
-3.510,-4.280,-0.700
-0.850,-4.680,-1.420
3.410,-3.340,-3.350
7.080,-3.590,1.070
9.420,-2.150,1.900
15.280,-10.430,-1.410
-13.220,-13.190,-8.380
-13.220,-13.190,-8.380
-13.220,-13.190,-8.380
-14.280,-14.000,-6.370
-14.280,-14.000,-6.370
-14.280,-14.000,-6.370
-14.280,-14.000,-6.370
-14.280,-14.000,-6.370
-14.280,-14.000,-6.370
-13.050,-14.380,-4.950
-13.050,-14.380,-4.950
-13.050,-14.380,-4.950
-13.050,-14.380,-4.950
-11.650,-14.090,-4.480
-11.650,-14.090,-4.480
-11.650,-14.090,-4.480
-11.650,-14.090,-4.480
-11.940,-13.730,-4.700
-11.940,-13.730,-4.700
-11.940,-13.730,-4.700
-11.940,-13.730,-4.700
-11.040,-12.510,-4.980
-11.040,-12.510,-4.980
-11.040,-12.510,-4.980
-11.040,-12.510,-4.980
-11.040,-12.510,-4.980
-10.100,-10.620,-4.560
-10.100,-10.620,-4.560
-10.100,-10.620,-4.560
-10.100,-10.620,-4.560
-10.100,-10.620,-4.560
-10.100,-10.620,-4.560
-10.540,-10.640,-3.790
,,,
0.090,-1.390,0.330
-0.170,-1.470,0.220
0.420,-1.530,0.410
1.880,-1.240,-0.680
6.170,-0.850,-0.110
12.130,-4.850,-0.520
8.540,-8.740,-4.710
-6.210,-12.250,-2.970
-2.990,-4.250,-0.030
0.620,-0.740,0.830
-1.550,-2.520,0.520
-2.410,-6.420,1.330
-1.450,-4.990,-0.580
2.760,-3.560,-2.480
8.880,-1.890,-0.940
12.330,-0.030,1.400
17.160,-9.700,4.130
-5.360,-9.830,-13.200
-6.980,-9.970,-12.600
-6.980,-9.970,-12.600
-6.980,-9.970,-12.600
-6.980,-9.970,-12.600
-6.980,-9.970,-12.600
-6.980,-9.970,-12.600
-9.040,-14.800,-9.540
-9.040,-14.800,-9.540
-9.040,-14.800,-9.540
-9.040,-14.800,-9.540
-10.600,-18.500,-6.820
-10.600,-18.500,-6.820
-10.600,-18.500,-6.820
-10.600,-18.500,-6.820
-12.620,-20.290,-5.230
-12.620,-20.290,-5.230
-12.620,-20.290,-5.230
-12.620,-20.290,-5.230
-16.240,-21.420,-5.590
-16.240,-21.420,-5.590
-16.240,-21.420,-5.590
-16.240,-21.420,-5.590
-16.240,-21.420,-5.590
-16.720,-19.160,-6.150
-16.720,-19.160,-6.150
-16.720,-19.160,-6.150
-16.720,-19.160,-6.150
-16.720,-19.160,-6.150
-16.720,-19.160,-6.150
-14.260,-15.330,-6.570
-14.260,-15.330,-6.570
-14.260,-15.330,-6.570
,,,
0.340,-0.080,-0.170
0.290,0.480,-0.350
0.810,-0.540,-0.680
0.000,0.190,0.560
0.740,0.660,-0.860
0.490,-0.480,-1.230
1.120,-0.510,-1.010
1.300,-0.940,-0.970
0.410,-0.170,-0.960
0.340,-0.720,-0.590
0.680,-0.780,-0.960
0.030,0.330,0.000
0.080,0.150,-0.290
0.420,-0.560,-0.470
0.280,0.360,0.000
0.830,-0.560,-0.340
1.780,-5.090,-3.070
4.900,-14.150,-7.950
4.900,-14.150,-7.950
7.300,-21.230,-9.060
7.300,-21.230,-9.060
7.300,-21.230,-9.060
7.300,-21.230,-9.060
7.300,-21.230,-9.060
8.050,-25.410,-7.980
8.050,-25.410,-7.980
8.050,-25.410,-7.980
8.050,-25.410,-7.980
8.130,-28.650,-6.390
8.130,-28.650,-6.390
8.130,-28.650,-6.390
8.130,-28.650,-6.390
5.030,-33.200,-4.940
5.030,-33.200,-4.940
5.030,-33.200,-4.940
5.030,-33.200,-4.940
2.620,-33.200,-4.060
2.620,-33.200,-4.060
2.620,-33.200,-4.060
2.620,-33.200,-4.060
2.620,-33.200,-4.060
-0.160,-31.710,-3.100
-0.160,-31.710,-3.100
-0.160,-31.710,-3.100
-0.160,-31.710,-3.100
-0.160,-31.710,-3.100
-0.160,-31.710,-3.100
-2.660,-29.920,-2.490
-2.660,-29.920,-2.490
-2.660,-29.920,-2.490
,,,
0.670,-1.000,-1.350
0.360,-0.830,-0.980
0.480,-0.960,-0.930
0.050,-0.770,-0.750
0.660,-1.430,-1.040
0.720,-1.240,-0.350
0.370,-0.640,-0.390
0.370,-0.650,-0.500
0.510,-0.610,-0.400
0.460,-0.460,-0.590
-0.060,-0.230,-0.400
0.030,-0.500,-0.530
0.090,-0.430,-0.460
0.240,-0.290,-0.620
-0.150,0.300,-0.370
0.000,-0.210,-0.630
3.930,-12.890,-3.690
-8.460,-23.350,-13.270
-8.460,-23.350,-13.270
-8.460,-23.350,-13.270
-8.460,-23.350,-13.270
-8.460,-23.350,-13.270
-9.300,-23.350,-15.310
-9.300,-23.350,-15.310
-9.300,-23.350,-15.310
-9.300,-23.350,-15.310
-11.790,-20.630,-15.790
-11.790,-20.630,-15.790
-11.790,-20.630,-15.790
-11.790,-20.630,-15.790
-20.930,-13.070,-15.390
-20.930,-13.070,-15.390
-20.930,-13.070,-15.390
-23.550,-9.890,-15.190
-23.550,-9.890,-15.190
-23.550,-9.890,-15.190
-23.550,-9.890,-15.190
-23.550,-9.890,-15.190
-23.550,-9.890,-15.190
-23.960,-7.300,-14.000
-23.960,-7.300,-14.000
-23.960,-7.300,-14.000
-23.960,-7.300,-14.000
-23.960,-7.300,-14.000
-22.230,-4.380,-10.800
-22.230,-4.380,-10.800
-22.230,-4.380,-10.800
-22.230,-4.380,-10.800
-22.230,-4.380,-10.800
-25.350,4.030,-3.900
,,,
0.370,-0.650,-0.500
0.510,-0.610,-0.400
0.460,-0.460,-0.590
-0.060,-0.230,-0.400
0.030,-0.500,-0.530
0.090,-0.430,-0.460
0.240,-0.290,-0.620
-0.150,0.300,-0.370
0.000,-0.210,-0.630
3.930,-12.890,-3.690
0.690,-0.590,-2.140
0.610,-0.970,-1.310
0.220,-0.630,-0.680
0.450,-0.490,-0.710
0.270,0.000,-0.070
0.290,0.220,-0.150
3.530,-18.170,-6.660
-38.240,-5.940,-40.170
-33.180,3.460,-40.060
-33.180,3.460,-40.060
-33.180,3.460,-40.060
-33.180,3.460,-40.060
-33.180,3.460,-40.060
-33.180,3.460,-40.060
-30.710,18.980,-32.720
-30.710,18.980,-32.720
-30.710,18.980,-32.720
-30.710,18.980,-32.720
-30.710,18.980,-32.720
-32.480,28.860,-21.770
-32.480,28.860,-21.770
-32.480,28.860,-21.770
-32.480,28.860,-21.770
-32.980,31.940,-11.750
-32.980,31.940,-11.750
-32.980,31.940,-11.750
-32.980,31.940,-11.750
-32.000,25.750,3.140
-32.000,25.750,3.140
-32.000,25.750,3.140
-32.000,25.750,3.140
-29.610,23.950,-1.110
-29.610,23.950,-1.110
-29.610,23.950,-1.110
-29.610,23.950,-1.110
-29.610,23.950,-1.110
-25.910,26.830,-6.810
-25.910,26.830,-6.810
-25.910,26.830,-6.810
-25.910,26.830,-6.810
,,,
0.640,-0.820,-0.480
0.720,-0.460,-0.460
0.150,0.150,-0.130
0.390,-0.460,-0.260
0.270,-0.130,-0.170
0.270,0.060,-0.430
0.360,-0.190,-0.560
0.410,-0.550,-0.320
0.280,-0.220,-0.240
0.330,0.340,-0.110
0.130,-0.200,-0.110
-0.030,-0.990,-0.610
-0.600,0.940,0.580
-0.030,1.380,0.340
0.500,-0.070,-0.360
1.550,-2.410,-1.870
0.670,-21.680,-3.880
-20.480,-5.890,-22.860
-20.480,-5.890,-22.860
-20.480,-5.890,-22.860
-25.970,5.570,-18.940
-25.970,5.570,-18.940
-25.970,5.570,-18.940
-25.970,5.570,-18.940
-25.970,5.570,-18.940
-28.710,11.890,-13.380
-28.710,11.890,-13.380
-28.710,11.890,-13.380
-28.710,11.890,-13.380
-30.990,19.610,-0.470
-30.990,19.610,-0.470
-30.990,19.610,-0.470
-30.990,19.610,-0.470
-30.340,24.140,11.700
-30.340,24.140,11.700
-30.340,24.140,11.700
-30.340,24.140,11.700
-29.900,21.130,9.110
-29.900,21.130,9.110
-29.900,21.130,9.110
-29.900,21.130,9.110
-29.900,21.130,9.110
-29.900,21.130,9.110
-29.630,18.910,5.710
-29.630,18.910,5.710
-29.630,18.910,5.710
-29.630,18.910,5.710
-29.630,18.910,5.710
-29.510,20.070,7.270
-29.510,20.070,7.270
,,,
-0.600,0.940,0.580
-0.030,1.380,0.340
0.500,-0.070,-0.360
1.550,-2.410,-1.870
0.670,-21.680,-3.880
0.590,-0.430,-0.310
0.370,-0.580,-0.230
0.470,-0.140,-0.500
0.300,-0.360,-0.180
0.420,-0.170,-0.130
0.830,0.280,-1.280
-0.190,0.030,0.380
0.280,-0.660,-0.140
0.730,-0.150,-0.660
0.140,0.040,-0.470
-0.080,-1.150,0.200
4.460,-12.420,-4.850
-26.900,-6.200,-21.610
-26.900,-6.200,-21.610
-26.900,-6.200,-21.610
-26.900,-6.200,-21.610
-26.900,-6.200,-21.610
-26.900,-6.200,-21.610
-25.370,2.700,-22.960
-25.370,2.700,-22.960
-25.370,2.700,-22.960
-25.370,2.700,-22.960
-25.370,2.700,-22.960
-22.700,5.590,-23.390
-22.700,5.590,-23.390
-22.700,5.590,-23.390
-22.700,5.590,-23.390
-27.400,8.350,-22.460
-27.400,8.350,-22.460
-27.400,8.350,-22.460
-27.400,8.350,-22.460
-29.920,11.720,2.500
-29.920,11.720,2.500
-29.920,11.720,2.500
-29.920,11.720,2.500
-29.550,4.170,11.580
-29.550,4.170,11.580
-29.550,4.170,11.580
-29.550,4.170,11.580
-29.550,4.170,11.580
-29.290,6.140,7.490
-29.290,6.140,7.490
-29.290,6.140,7.490
-29.290,6.140,7.490
-29.290,6.140,7.490
,,,
0.470,-0.140,-0.500
0.300,-0.360,-0.180
0.420,-0.170,-0.130
0.830,0.280,-1.280
-0.190,0.030,0.380
0.280,-0.660,-0.140
0.730,-0.150,-0.660
0.140,0.040,-0.470
-0.080,-1.150,0.200
4.460,-12.420,-4.850
0.140,-0.240,-0.090
0.090,-0.020,-0.140
0.190,-0.390,-0.300
0.090,-0.340,-0.070
-0.380,0.130,0.290
-0.670,-2.720,-0.080
2.310,-18.630,-3.420
-25.540,-7.750,-14.360
-25.540,-7.750,-14.360
-25.540,-7.750,-14.360
-26.120,-1.610,-14.070
-26.120,-1.610,-14.070
-26.120,-1.610,-14.070
-26.120,-1.610,-14.070
-25.340,4.080,-15.430
-25.340,4.080,-15.430
-25.340,4.080,-15.430
-25.340,4.080,-15.430
-25.340,4.080,-15.430
-25.340,4.080,-15.430
-23.180,2.810,-14.520
-23.180,2.810,-14.520
-23.180,2.810,-14.520
-23.180,2.810,-14.520
-23.180,2.810,-14.520
-23.930,5.200,-9.380
-23.930,5.200,-9.380
-23.930,5.200,-9.380
-23.930,5.200,-9.380
-31.060,13.780,14.430
-31.060,13.780,14.430
-31.060,13.780,14.430
-31.060,13.780,14.430
-30.360,10.960,19.690
-30.360,10.960,19.690
-30.360,10.960,19.690
-30.360,10.960,19.690
-29.870,1.800,12.650
-29.870,1.800,12.650
-29.870,1.800,12.650
,,,
0.140,0.040,-0.470
-0.080,-1.150,0.200
4.460,-12.420,-4.850
0.140,-0.240,-0.090
0.090,-0.020,-0.140
0.190,-0.390,-0.300
0.090,-0.340,-0.070
-0.380,0.130,0.290
-0.670,-2.720,-0.080
2.310,-18.630,-3.420
0.090,-0.670,-0.070
0.000,-0.350,0.220
0.070,0.020,0.010
0.210,-0.250,-0.170
-0.020,-0.070,-0.020
0.340,0.250,-0.530
4.240,-8.190,-3.540
-8.920,-17.850,-5.230
-8.920,-17.850,-5.230
-8.920,-17.850,-5.230
-10.400,-14.750,-5.780
-10.400,-14.750,-5.780
-10.400,-14.750,-5.780
-10.400,-14.750,-5.780
-10.400,-13.790,-6.170
-10.400,-13.790,-6.170
-10.400,-13.790,-6.170
-10.040,-13.200,-6.530
-10.040,-13.200,-6.530
-10.040,-13.200,-6.530
-10.040,-13.200,-6.530
-9.740,-12.400,-6.820
-9.740,-12.400,-6.820
-9.740,-12.400,-6.820
-9.740,-12.400,-6.820
-9.740,-12.400,-6.820
-9.740,-12.400,-6.820
-9.780,-11.340,-6.600
-9.780,-11.340,-6.600
-9.780,-11.340,-6.600
-9.780,-11.340,-6.600
-9.780,-11.340,-6.600
-11.020,-9.260,-5.670
-11.020,-9.260,-5.670
-11.020,-9.260,-5.670
-11.020,-9.260,-5.670
-13.360,-5.690,-2.890
-13.360,-5.690,-2.890
-13.360,-5.690,-2.890
-13.360,-5.690,-2.890
,,,
0.090,-0.340,-0.070
-0.380,0.130,0.290
-0.670,-2.720,-0.080
2.310,-18.630,-3.420
0.090,-0.670,-0.070
0.000,-0.350,0.220
0.070,0.020,0.010
0.210,-0.250,-0.170
-0.020,-0.070,-0.020
0.340,0.250,-0.530
4.240,-8.190,-3.540
0.350,-1.350,-0.290
-0.010,-0.130,0.180
0.170,-0.080,-0.040
0.240,-0.210,-0.090
0.260,-0.880,0.060
1.940,-7.380,-0.790
-1.200,-16.580,-1.180
-1.200,-16.580,-1.180
-1.200,-16.580,-1.180
-1.200,-16.580,-1.180
-1.200,-16.580,-1.180
-1.670,-17.110,-1.320
-1.670,-17.110,-1.320
-1.670,-17.110,-1.320
-1.670,-17.110,-1.320
-1.670,-17.110,-1.320
-2.470,-16.470,-1.730
-2.470,-16.470,-1.730
-2.470,-16.470,-1.730
-2.470,-16.470,-1.730
-2.760,-16.040,-2.460
-2.760,-16.040,-2.460
-2.760,-16.040,-2.460
-2.760,-16.040,-2.460
-2.790,-15.170,-3.640
-2.790,-15.170,-3.640
-2.790,-15.170,-3.640
-2.790,-15.170,-3.640
-2.650,-12.970,-6.700
-2.650,-12.970,-6.700
-2.650,-12.970,-6.700
-2.650,-12.970,-6.700
-2.650,-12.970,-6.700
-2.650,-12.970,-6.700
-2.500,-12.550,-7.840
-2.500,-12.550,-7.840
-2.500,-12.550,-7.840
-2.500,-12.550,-7.840
-2.500,-12.550,-7.840
,,,
0.210,-0.250,-0.170
-0.020,-0.070,-0.020
0.340,0.250,-0.530
4.240,-8.190,-3.540
0.350,-1.350,-0.290
-0.010,-0.130,0.180
0.170,-0.080,-0.040
0.240,-0.210,-0.090
0.260,-0.880,0.060
1.940,-7.380,-0.790
0.190,-2.600,0.230
0.290,-0.840,0.070
0.160,0.210,0.140
0.390,-0.320,-0.160
0.350,-0.950,-0.110
1.750,-3.790,-1.120
1.710,-11.400,-3.180
-6.170,-6.560,-4.990
-6.170,-6.560,-4.990
-6.730,-5.340,-4.330
-6.730,-5.340,-4.330
-6.730,-5.340,-4.330
-6.730,-5.340,-4.330
-7.040,-4.040,-3.800
-7.040,-4.040,-3.800
-7.040,-4.040,-3.800
-7.040,-4.040,-3.800
-7.040,-4.040,-3.800
-7.940,-1.080,-3.670
-7.940,-1.080,-3.670
-7.940,-1.080,-3.670
-7.940,-1.080,-3.670
-7.940,-1.080,-3.670
-7.940,-1.080,-3.670
-7.930,-0.100,-3.670
-7.930,-0.100,-3.670
-7.930,-0.100,-3.670
-7.930,-0.100,-3.670
-8.460,0.970,-3.270
-8.460,0.970,-3.270
-8.460,0.970,-3.270
-8.460,0.970,-3.270
-8.160,1.400,-2.700
-8.160,1.400,-2.700
-8.160,1.400,-2.700
-8.160,1.400,-2.700
-7.380,-1.030,-1.120
-7.380,-1.030,-1.120
-7.380,-1.030,-1.120
-7.380,-1.030,-1.120
,,,
0.170,-0.080,-0.040
0.240,-0.210,-0.090
0.260,-0.880,0.060
1.940,-7.380,-0.790
0.190,-2.600,0.230
0.290,-0.840,0.070
0.160,0.210,0.140
0.390,-0.320,-0.160
0.350,-0.950,-0.110
1.750,-3.790,-1.120
1.710,-11.400,-3.180
0.270,-2.120,0.550
0.270,-0.400,0.090
0.100,-0.270,0.170
0.480,-0.960,-0.580
1.360,-3.980,-0.970
-8.100,-17.420,1.910
-10.710,4.720,-9.040
-10.710,4.720,-9.040
-10.710,4.720,-9.040
-13.680,7.450,-6.930
-13.680,7.450,-6.930
-13.680,7.450,-6.930
-13.680,7.450,-6.930
-17.200,5.660,-3.760
-17.200,5.660,-3.760
-17.200,5.660,-3.760
-17.850,5.460,-2.730
-17.850,5.460,-2.730
-17.850,5.460,-2.730
-17.850,5.460,-2.730
-17.490,6.440,-1.390
-17.490,6.440,-1.390
-17.490,6.440,-1.390
-17.490,6.440,-1.390
-17.490,6.440,-1.390
-17.490,6.440,-1.390
-22.360,5.300,-0.080
-22.360,5.300,-0.080
-22.360,5.300,-0.080
-22.360,5.300,-0.080
-22.360,5.300,-0.080
-25.100,4.580,2.000
-25.100,4.580,2.000
-25.100,4.580,2.000
-25.100,4.580,2.000
-25.170,3.790,3.800
-25.170,3.790,3.800
-25.170,3.790,3.800
-25.170,3.790,3.800
,,,
1.750,-3.790,-1.120
1.710,-11.400,-3.180
0.270,-2.120,0.550
0.270,-0.400,0.090
0.100,-0.270,0.170
0.480,-0.960,-0.580
1.360,-3.980,-0.970
-8.100,-17.420,1.910
0.210,-0.350,-0.060
0.170,-0.490,0.090
0.170,-0.350,0.050
-0.290,0.040,0.800
0.000,0.660,0.420
0.920,1.340,-0.470
0.260,-1.690,-0.620
0.080,-5.750,-1.750
-0.920,-9.280,-3.190
-1.090,-14.810,-5.450
-1.090,-14.810,-5.450
-1.300,-14.940,-5.740
-1.300,-14.940,-5.740
-1.300,-14.940,-5.740
-1.300,-14.940,-5.740
-1.300,-14.940,-5.740
-1.890,-15.310,-6.140
-1.890,-15.310,-6.140
-1.890,-15.310,-6.140
-1.890,-15.310,-6.140
-3.350,-16.050,-7.050
-3.350,-16.050,-7.050
-3.350,-16.050,-7.050
-3.350,-16.050,-7.050
-3.650,-16.140,-7.100
-3.650,-16.140,-7.100
-3.650,-16.140,-7.100
-3.650,-16.140,-7.100
-4.000,-15.490,-7.030
-4.000,-15.490,-7.030
-4.000,-15.490,-7.030
-4.000,-15.490,-7.030
-4.000,-15.490,-7.030
-6.090,-13.380,-7.130
-6.090,-13.380,-7.130
-6.090,-13.380,-7.130
-6.090,-13.380,-7.130
-6.090,-13.380,-7.130
-6.090,-13.380,-7.130
-6.910,-11.940,-7.340
-6.910,-11.940,-7.340
-6.910,-11.940,-7.340
,,,
0.170,-0.350,0.050
-0.290,0.040,0.800
0.000,0.660,0.420
0.920,1.340,-0.470
0.260,-1.690,-0.620
0.080,-5.750,-1.750
-0.920,-9.280,-3.190
0.080,-2.210,-1.100
0.360,-2.460,-1.660
-0.440,-2.560,-1.090
-0.470,-1.810,-0.290
-0.610,-0.740,0.400
-0.380,0.540,-0.540
-0.640,-1.130,0.590
-0.570,-1.950,0.910
0.730,-4.530,-1.490
0.440,-11.280,-2.380
-6.790,-6.890,-4.560
-6.790,-6.890,-4.560
-6.790,-6.890,-4.560
-6.790,-6.890,-4.560
-6.790,-6.890,-4.560
-6.790,-6.890,-4.560
-6.490,-6.780,-4.090
-6.490,-6.780,-4.090
-6.490,-6.780,-4.090
-6.490,-6.780,-4.090
-6.490,-6.780,-4.090
-6.510,-6.470,-3.830
-6.510,-6.470,-3.830
-6.510,-6.470,-3.830
-6.510,-6.470,-3.830
-8.830,-4.350,-3.000
-8.830,-4.350,-3.000
-8.830,-4.350,-3.000
-8.830,-4.350,-3.000
-9.660,-2.920,-2.930
-9.660,-2.920,-2.930
-9.660,-2.920,-2.930
-9.660,-2.920,-2.930
-9.830,-1.380,-3.010
-9.830,-1.380,-3.010
-9.830,-1.380,-3.010
-9.830,-1.380,-3.010
-9.830,-1.380,-3.010
-9.830,-1.380,-3.010
-8.900,0.890,-3.620
-8.900,0.890,-3.620
-8.900,0.890,-3.620
-8.900,0.890,-3.620
,,,
-0.440,-2.560,-1.090
-0.470,-1.810,-0.290
-0.610,-0.740,0.400
-0.380,0.540,-0.540
-0.640,-1.130,0.590
-0.570,-1.950,0.910
0.730,-4.530,-1.490
0.440,-11.280,-2.380
-1.180,-2.000,-0.470
-0.920,-1.090,-0.360
-0.360,-1.950,0.290
-1.360,-1.110,1.110
-0.680,-1.330,1.240
-1.610,-0.740,1.410
-0.070,0.490,-0.450
-0.060,-3.310,0.080
-0.390,-6.740,-2.160
0.110,-10.120,-1.910
0.110,-10.120,-1.910
1.190,-9.360,-2.730
1.190,-9.360,-2.730
1.190,-9.360,-2.730
1.840,-8.880,-3.250
1.840,-8.880,-3.250
1.840,-8.880,-3.250
1.840,-8.880,-3.250
1.840,-8.880,-3.250
1.840,-8.880,-3.250
1.860,-8.470,-3.870
1.860,-8.470,-3.870
1.860,-8.470,-3.870
1.860,-8.470,-3.870
1.860,-8.470,-3.870
0.960,-7.930,-5.110
0.960,-7.930,-5.110
0.960,-7.930,-5.110
0.960,-7.930,-5.110
0.290,-7.970,-5.570
0.290,-7.970,-5.570
0.290,-7.970,-5.570
0.290,-7.970,-5.570
-0.760,-7.370,-5.940
-0.760,-7.370,-5.940
-0.760,-7.370,-5.940
-0.760,-7.370,-5.940
-1.400,-6.150,-6.540
-1.400,-6.150,-6.540
-1.400,-6.150,-6.540
-1.400,-6.150,-6.540
-1.400,-6.150,-6.540
,,,
0.440,-11.280,-2.380
-1.180,-2.000,-0.470
-0.920,-1.090,-0.360
-0.360,-1.950,0.290
-1.360,-1.110,1.110
-0.680,-1.330,1.240
-1.610,-0.740,1.410
-0.070,0.490,-0.450
-0.060,-3.310,0.080
-0.390,-6.740,-2.160
-0.930,-1.990,-0.210
-1.140,-2.110,0.460
-1.150,-1.570,0.970
-1.000,-0.860,1.090
-0.390,-2.600,0.610
-1.010,-7.300,-0.510
-1.140,-8.120,-5.060
-9.560,-4.680,-3.660
-9.470,-3.920,-4.000
-9.470,-3.920,-4.000
-9.470,-3.920,-4.000
-9.470,-3.920,-4.000
-9.330,-2.080,-4.470
-9.330,-2.080,-4.470
-9.330,-2.080,-4.470
-9.330,-2.080,-4.470
-8.050,1.360,-5.370
-8.050,1.360,-5.370
-8.050,1.360,-5.370
-8.050,1.360,-5.370
-6.870,1.900,-5.510
-6.870,1.900,-5.510
-6.870,1.900,-5.510
-6.870,1.900,-5.510
-6.870,1.900,-5.510
-6.240,2.200,-4.920
-6.240,2.200,-4.920
-6.240,2.200,-4.920
-6.240,2.200,-4.920
-6.240,2.200,-4.920
-6.240,2.200,-4.920
-6.550,-0.010,-1.990
-6.550,-0.010,-1.990
-6.550,-0.010,-1.990
-6.550,-0.010,-1.990
-6.490,-1.450,-0.530
-6.490,-1.450,-0.530
-6.490,-1.450,-0.530
-6.490,-1.450,-0.530
-6.440,-2.190,0.150
,,,
-0.680,-1.330,1.240
-1.610,-0.740,1.410
-0.070,0.490,-0.450
-0.060,-3.310,0.080
-0.390,-6.740,-2.160
-0.930,-1.990,-0.210
-1.140,-2.110,0.460
-1.150,-1.570,0.970
-1.000,-0.860,1.090
-0.390,-2.600,0.610
-1.010,-7.300,-0.510
-1.140,-8.120,-5.060
-1.370,-3.130,-0.690
-0.680,-3.390,-0.540
-1.060,-2.420,-0.150
-0.900,-2.900,0.170
2.840,-18.700,-4.190
-16.260,-18.590,-9.880
-16.260,-18.590,-9.880
-16.260,-18.590,-9.880
-16.260,-18.590,-9.880
-16.260,-18.590,-9.880
-15.860,-15.220,-12.790
-15.860,-15.220,-12.790
-15.860,-15.220,-12.790
-15.860,-15.220,-12.790
-15.860,-15.220,-12.790
-15.320,-11.420,-15.660
-15.320,-11.420,-15.660
-15.320,-11.420,-15.660
-15.320,-11.420,-15.660
-15.280,-7.590,-16.970
-15.280,-7.590,-16.970
-15.280,-7.590,-16.970
-15.280,-7.590,-16.970
-17.700,1.750,-20.450
-17.700,1.750,-20.450
-17.700,1.750,-20.450
-17.700,1.750,-20.450
-19.250,8.790,-23.790
-19.250,8.790,-23.790
-19.250,8.790,-23.790
-19.250,8.790,-23.790
-19.250,8.790,-23.790
-19.250,8.790,-23.790
-19.490,15.910,-23.470
-19.490,15.910,-23.470
-19.490,15.910,-23.470
-19.490,15.910,-23.470
-19.490,15.910,-23.470
,,,
-0.930,-1.990,-0.210
-1.140,-2.110,0.460
-1.150,-1.570,0.970
-1.000,-0.860,1.090
-0.390,-2.600,0.610
-1.010,-7.300,-0.510
-1.140,-8.120,-5.060
-1.370,-3.130,-0.690
-0.680,-3.390,-0.540
-1.060,-2.420,-0.150
-0.900,-2.900,0.170
2.840,-18.700,-4.190
-0.730,-2.590,0.440
-0.490,-1.370,0.760
-0.860,-0.360,1.050
-0.730,-0.260,0.670
3.380,-10.880,-0.100
-5.620,-19.560,-6.740
-6.420,-20.270,-6.120
-6.420,-20.270,-6.120
-6.420,-20.270,-6.120
-7.290,-19.830,-5.060
-7.290,-19.830,-5.060
-7.290,-19.830,-5.060
-7.290,-19.830,-5.060
-9.980,-19.250,-4.260
-9.980,-19.250,-4.260
-9.980,-19.250,-4.260
-9.980,-19.250,-4.260
-9.980,-19.250,-4.260
-9.980,-19.250,-4.260
-11.520,-17.970,-4.060
-11.520,-17.970,-4.060
-11.520,-17.970,-4.060
-11.520,-17.970,-4.060
-11.520,-17.970,-4.060
-12.880,-15.080,-4.520
-12.880,-15.080,-4.520
-12.880,-15.080,-4.520
-12.880,-15.080,-4.520
-12.880,-15.080,-4.520
-14.710,-8.490,-7.060
-14.710,-8.490,-7.060
-14.710,-8.490,-7.060
-14.050,-5.290,-8.160
-14.050,-5.290,-8.160
-14.050,-5.290,-8.160
-14.050,-5.290,-8.160
-12.040,-1.990,-9.490
-12.040,-1.990,-9.490
,,,
-1.140,-8.120,-5.060
-1.370,-3.130,-0.690
-0.680,-3.390,-0.540
-1.060,-2.420,-0.150
-0.900,-2.900,0.170
2.840,-18.700,-4.190
-0.730,-2.590,0.440
-0.490,-1.370,0.760
-0.860,-0.360,1.050
-0.730,-0.260,0.670
3.380,-10.880,-0.100
-0.040,-2.490,0.980
0.140,-2.610,0.800
-0.270,-0.390,0.690
-0.280,-1.000,1.510
1.790,-5.750,-0.080
3.820,-13.420,-7.490
-12.230,-1.740,3.970
-12.230,-1.740,3.970
-12.230,-1.740,3.970
-12.230,-1.740,3.970
-12.230,-1.740,3.970
-12.230,-1.740,3.970
-11.760,-0.200,4.900
-11.760,-0.200,4.900
-11.760,-0.200,4.900
-15.000,-0.070,5.470
-15.000,-0.070,5.470
-15.000,-0.070,5.470
-15.000,-0.070,5.470
-16.000,0.210,5.450
-16.000,0.210,5.450
-16.000,0.210,5.450
-16.000,0.210,5.450
-15.210,1.800,4.070
-15.210,1.800,4.070
-15.210,1.800,4.070
-15.210,1.800,4.070
-15.210,1.800,4.070
-15.210,1.800,4.070
-16.530,2.790,3.280
-16.530,2.790,3.280
-16.530,2.790,3.280
-16.530,2.790,3.280
-16.530,2.790,3.280
-15.500,3.870,3.820
-15.500,3.870,3.820
-15.500,3.870,3.820
-15.500,3.870,3.820
-14.840,2.840,4.210
,,,
-0.490,-1.370,0.760
-0.860,-0.360,1.050
-0.730,-0.260,0.670
3.380,-10.880,-0.100
-0.040,-2.490,0.980
0.140,-2.610,0.800
-0.270,-0.390,0.690
-0.280,-1.000,1.510
1.790,-5.750,-0.080
3.820,-13.420,-7.490
-0.330,-1.090,1.240
-0.080,-1.210,0.710
0.010,-1.240,0.360
0.200,-1.780,-0.070
0.720,-2.500,-0.630
0.360,-3.660,-0.530
2.880,-8.810,-4.390
-6.080,-3.570,-1.470
-6.080,-3.570,-1.470
-4.860,-3.290,-1.650
-4.860,-3.290,-1.650
-4.860,-3.290,-1.650
-4.860,-3.290,-1.650
-4.860,-3.290,-1.650
-4.250,-3.280,-1.370
-4.250,-3.280,-1.370
-4.250,-3.280,-1.370
-4.250,-3.280,-1.370
-4.250,-3.280,-1.370
-5.170,-2.690,-0.130
-5.170,-2.690,-0.130
-5.170,-2.690,-0.130
-5.170,-2.690,-0.130
-5.170,-2.690,-0.130
-6.460,-1.690,1.650
-6.460,-1.690,1.650
-6.460,-1.690,1.650
-6.460,-1.690,1.650
-10.370,-1.350,2.740
-10.370,-1.350,2.740
-10.370,-1.350,2.740
-10.750,-0.630,2.940
-10.750,-0.630,2.940
-10.750,-0.630,2.940
-10.750,-0.630,2.940
-10.750,-0.630,2.940
-10.750,-0.630,2.940
-10.400,-0.260,3.060
-10.400,-0.260,3.060
-10.400,-0.260,3.060
,,,
-0.270,-0.390,0.690
-0.280,-1.000,1.510
1.790,-5.750,-0.080
3.820,-13.420,-7.490
-0.330,-1.090,1.240
-0.080,-1.210,0.710
0.010,-1.240,0.360
0.200,-1.780,-0.070
0.720,-2.500,-0.630
0.360,-3.660,-0.530
2.880,-8.810,-4.390
-0.360,-1.860,-0.100
-0.300,-2.150,0.520
-0.140,-1.210,0.760
-0.960,-0.760,1.280
0.920,-1.960,-0.640
1.780,-5.520,-2.440
-1.950,-2.510,-2.410
-1.950,-2.510,-2.410
-1.710,-2.700,-2.730
-1.710,-2.700,-2.730
-1.710,-2.700,-2.730
-1.710,-2.700,-2.730
-0.960,-3.010,-2.970
-0.960,-3.010,-2.970
-0.960,-3.010,-2.970
-0.960,-3.010,-2.970
0.000,-3.270,-3.190
0.000,-3.270,-3.190
0.000,-3.270,-3.190
0.000,-3.270,-3.190
0.000,-3.270,-3.190
0.840,-3.990,-3.450
0.840,-3.990,-3.450
0.840,-3.990,-3.450
0.840,-3.990,-3.450
0.840,-3.990,-3.450
0.840,-3.990,-3.450
0.560,-3.970,-3.690
0.560,-3.970,-3.690
0.560,-3.970,-3.690
0.560,-3.970,-3.690
0.080,-4.120,-3.080
0.080,-4.120,-3.080
0.080,-4.120,-3.080
0.080,-4.120,-3.080
-1.020,-3.750,-1.550
-1.020,-3.750,-1.550
-1.020,-3.750,-1.550
-1.020,-3.750,-1.550
,,,
0.360,-3.660,-0.530
2.880,-8.810,-4.390
-0.360,-1.860,-0.100
-0.300,-2.150,0.520
-0.140,-1.210,0.760
-0.960,-0.760,1.280
0.920,-1.960,-0.640
1.780,-5.520,-2.440
-0.030,-1.930,-0.860
0.000,-1.900,-0.090
-0.090,-1.300,0.390
-0.180,-1.270,-0.060
-1.970,0.620,1.800
-0.140,0.330,0.130
2.090,-2.390,-0.850
-0.490,-6.790,0.310
-6.020,-12.460,-3.030
-9.650,-4.160,-5.120
-9.650,-4.160,-5.120
-9.650,-4.160,-5.120
-9.650,-4.160,-5.120
-6.590,-5.160,-5.690
-6.590,-5.160,-5.690
-6.590,-5.160,-5.690
-6.590,-5.160,-5.690
-7.400,-5.240,-3.120
-7.400,-5.240,-3.120
-7.400,-5.240,-3.120
-9.130,-1.260,-1.380
-9.130,-1.260,-1.380
-9.130,-1.260,-1.380
-9.130,-1.260,-1.380
-8.580,-1.500,-3.900
-8.580,-1.500,-3.900
-8.580,-1.500,-3.900
-8.580,-1.500,-3.900
-8.580,-1.500,-3.900
-8.580,-1.500,-3.900
-11.050,-1.710,-7.740
-11.050,-1.710,-7.740
-11.050,-1.710,-7.740
-11.050,-1.710,-7.740
-11.050,-1.710,-7.740
-13.600,3.730,-8.260
-13.600,3.730,-8.260
-13.600,3.730,-8.260
-13.600,3.730,-8.260
-16.480,6.830,-5.000
-16.480,6.830,-5.000
-16.480,6.830,-5.000
,,,
0.920,-1.960,-0.640
1.780,-5.520,-2.440
-0.030,-1.930,-0.860
0.000,-1.900,-0.090
-0.090,-1.300,0.390
-0.180,-1.270,-0.060
-1.970,0.620,1.800
-0.140,0.330,0.130
2.090,-2.390,-0.850
-0.490,-6.790,0.310
-6.020,-12.460,-3.030
-0.260,-2.010,0.020
-0.560,-1.870,0.470
-0.140,-0.890,-0.120
1.080,-1.670,-0.400
0.120,-6.610,-0.990
-4.190,-13.800,-0.350
-11.710,-7.370,-4.070
-12.130,-3.430,-5.200
-12.130,-3.430,-5.200
-12.130,-3.430,-5.200
-12.130,-3.430,-5.200
-12.130,-3.430,-5.200
-13.100,1.130,-6.400
-13.100,1.130,-6.400
-13.100,1.130,-6.400
-13.100,1.130,-6.400
-13.100,1.130,-6.400
-13.100,1.130,-6.400
-17.240,11.330,-8.490
-17.240,11.330,-8.490
-17.240,11.330,-8.490
-17.240,11.330,-8.490
-17.540,16.670,-9.960
-17.540,16.670,-9.960
-17.540,16.670,-9.960
-17.540,16.670,-9.960
-16.350,17.820,-10.730
-16.350,17.820,-10.730
-16.350,17.820,-10.730
-12.860,7.330,-7.650
-12.860,7.330,-7.650
-12.860,7.330,-7.650
-12.860,7.330,-7.650
-12.860,7.330,-7.650
-12.860,7.330,-7.650
-12.830,0.430,-4.770
-12.830,0.430,-4.770
-12.830,0.430,-4.770
-12.830,0.430,-4.770
,,,
-0.140,0.330,0.130
2.090,-2.390,-0.850
-0.490,-6.790,0.310
-6.020,-12.460,-3.030
-0.260,-2.010,0.020
-0.560,-1.870,0.470
-0.140,-0.890,-0.120
1.080,-1.670,-0.400
0.120,-6.610,-0.990
-4.190,-13.800,-0.350
-0.360,-3.110,-0.190
-0.050,-3.260,0.170
0.540,-2.310,0.210
0.090,-0.170,-0.100
0.910,-0.750,-0.800
0.210,-7.260,0.490
-7.080,-18.230,2.000
-14.040,3.410,-4.160
-14.040,3.410,-4.160
-14.040,3.410,-4.160
-14.040,3.410,-4.160
-17.850,-0.280,0.330
-17.850,-0.280,0.330
-17.850,-0.280,0.330
-17.850,-0.280,0.330
-15.980,-0.290,1.860
-15.980,-0.290,1.860
-15.980,-0.290,1.860
-15.980,-0.290,1.860
-15.980,-0.290,1.860
-18.540,0.360,1.510
-18.540,0.360,1.510
-18.540,0.360,1.510
-18.540,0.360,1.510
-18.540,0.360,1.510
-18.540,0.360,1.510
-16.520,4.560,1.740
-16.520,4.560,1.740
-16.520,4.560,1.740
-16.520,4.560,1.740
-18.460,7.420,1.400
-18.460,7.420,1.400
-18.460,7.420,1.400
-18.460,7.420,1.400
-20.280,10.350,1.290
-20.280,10.350,1.290
-20.280,10.350,1.290
-20.280,10.350,1.290
-16.950,10.200,1.470
-16.950,10.200,1.470
,,,
1.080,-1.670,-0.400
0.120,-6.610,-0.990
-4.190,-13.800,-0.350
-0.360,-3.110,-0.190
-0.050,-3.260,0.170
0.540,-2.310,0.210
0.090,-0.170,-0.100
0.910,-0.750,-0.800
0.210,-7.260,0.490
-7.080,-18.230,2.000
-0.010,-1.860,0.180
0.130,-0.890,-0.030
0.030,0.170,0.250
0.100,-0.990,0.650
0.610,-2.260,0.640
-0.260,-7.290,-0.110
-4.020,-40.330,-2.770
-29.900,5.750,9.360
-29.900,5.750,9.360
-29.900,5.750,9.360
-29.900,5.750,9.360
-29.670,-1.140,5.180
-29.670,-1.140,5.180
-29.670,-1.140,5.180
-29.670,-1.140,5.180
-21.180,-0.120,-7.560
-21.180,-0.120,-7.560
-21.180,-0.120,-7.560
-21.180,-0.120,-7.560
-20.320,4.320,-8.840
-20.320,4.320,-8.840
-20.320,4.320,-8.840
-23.390,9.270,-7.330
-23.390,9.270,-7.330
-23.390,9.270,-7.330
-23.390,9.270,-7.330
-23.390,9.270,-7.330
-23.390,9.270,-7.330
-25.230,12.670,-3.460
-25.230,12.670,-3.460
-25.230,12.670,-3.460
-25.230,12.670,-3.460
-25.230,12.670,-3.460
-23.940,14.150,1.180
-23.940,14.150,1.180
-23.940,14.150,1.180
-23.940,14.150,1.180
-23.940,14.150,1.180
-14.840,9.690,2.940
-14.840,9.690,2.940
,,,
0.090,-0.170,-0.100
0.910,-0.750,-0.800
0.210,-7.260,0.490
-7.080,-18.230,2.000
-0.010,-1.860,0.180
0.130,-0.890,-0.030
0.030,0.170,0.250
0.100,-0.990,0.650
0.610,-2.260,0.640
-0.260,-7.290,-0.110
-4.020,-40.330,-2.770
-0.230,-1.350,0.630
0.050,-0.710,-0.030
-0.090,-0.750,0.190
-0.160,0.740,-0.300
0.800,-3.760,-0.840
-8.000,-46.090,-1.640
-17.450,8.060,-13.380
-33.020,1.620,-6.880
-33.020,1.620,-6.880
-33.020,1.620,-6.880
-33.020,1.620,-6.880
-33.020,1.620,-6.880
-33.020,1.620,-6.880
-32.830,12.520,-9.900
-32.830,12.520,-9.900
-32.830,12.520,-9.900
-32.830,12.520,-9.900
-32.830,12.520,-9.900
-32.190,23.200,-10.480
-32.190,23.200,-10.480
-32.190,23.200,-10.480
-32.190,23.200,-10.480
-32.190,23.200,-10.480
-28.260,24.000,-9.300
-28.260,24.000,-9.300
-28.260,24.000,-9.300
-28.200,21.870,-8.000
-28.200,21.870,-8.000
-28.200,21.870,-8.000
-28.200,21.870,-8.000
-28.000,19.420,-5.620
-28.000,19.420,-5.620
-28.000,19.420,-5.620
-28.000,19.420,-5.620
-28.000,19.420,-5.620
-28.000,19.420,-5.620
-27.350,13.360,-1.760
-27.350,13.360,-1.760
-27.350,13.360,-1.760
,,,
0.030,0.170,0.250
0.100,-0.990,0.650
0.610,-2.260,0.640
-0.260,-7.290,-0.110
-4.020,-40.330,-2.770
-0.230,-1.350,0.630
0.050,-0.710,-0.030
-0.090,-0.750,0.190
-0.160,0.740,-0.300
0.800,-3.760,-0.840
-8.000,-46.090,-1.640
-1.010,-0.930,1.070
-0.840,-0.430,0.800
-0.540,-0.220,0.720
-0.910,0.390,0.510
-1.020,-0.680,0.360
1.650,-17.660,-2.390
-30.710,-17.820,-32.510
-30.710,-17.820,-32.510
-33.260,-7.370,-35.950
-33.260,-7.370,-35.950
-33.260,-7.370,-35.950
-33.260,-7.370,-35.950
-35.370,1.810,-37.540
-35.370,1.810,-37.540
-35.370,1.810,-37.540
-39.060,26.400,-32.250
-39.060,26.400,-32.250
-39.060,26.400,-32.250
-39.060,26.400,-32.250
-39.060,26.400,-32.250
-39.060,26.400,-32.250
-37.140,30.160,-23.310
-37.140,30.160,-23.310
-37.140,30.160,-23.310
-37.140,30.160,-23.310
-37.140,30.160,-23.310
-33.140,29.860,-13.030
-33.140,29.860,-13.030
-33.140,29.860,-13.030
-33.140,29.860,-13.030
-34.880,20.190,-2.730
-34.880,20.190,-2.730
-34.880,20.190,-2.730
-34.880,20.190,-2.730
-33.880,19.920,-6.670
-33.880,19.920,-6.670
-33.880,19.920,-6.670
-33.880,19.920,-6.670
-31.220,24.640,-8.780
,,,
-0.090,-0.750,0.190
-0.160,0.740,-0.300
0.800,-3.760,-0.840
-8.000,-46.090,-1.640
-1.010,-0.930,1.070
-0.840,-0.430,0.800
-0.540,-0.220,0.720
-0.910,0.390,0.510
-1.020,-0.680,0.360
1.650,-17.660,-2.390
-1.230,-0.780,0.740
-1.520,-1.110,0.970
-1.090,-0.790,0.880
-0.720,-1.380,0.670
-0.490,1.210,0.310
-0.570,-0.400,0.470
-0.480,-9.670,-2.890
-7.000,-36.050,-5.210
-7.000,-36.050,-5.210
-7.000,-36.050,-5.210
-7.000,-36.050,-5.210
-7.000,-36.050,-5.210
-8.490,-37.540,-6.350
-8.490,-37.540,-6.350
-8.490,-37.540,-6.350
-8.490,-37.540,-6.350
-11.240,-35.880,-8.450
-11.240,-35.880,-8.450
-11.240,-35.880,-8.450
-11.240,-35.880,-8.450
-16.900,-22.800,-18.120
-16.900,-22.800,-18.120
-16.900,-22.800,-18.120
-16.900,-22.800,-18.120
-17.800,-13.230,-22.580
-17.800,-13.230,-22.580
-17.800,-13.230,-22.580
-17.800,-13.230,-22.580
-17.800,-13.230,-22.580
-18.690,-4.330,-24.890
-18.690,-4.330,-24.890
-18.690,-4.330,-24.890
-18.690,-4.330,-24.890
-18.690,-4.330,-24.890
-18.690,-4.330,-24.890
-19.650,3.130,-27.870
-19.650,3.130,-27.870
-19.650,3.130,-27.870
-19.650,3.130,-27.870
-21.310,22.550,-24.900
,,,
-0.910,0.390,0.510
-1.020,-0.680,0.360
1.650,-17.660,-2.390
-1.230,-0.780,0.740
-1.520,-1.110,0.970
-1.090,-0.790,0.880
-0.720,-1.380,0.670
-0.490,1.210,0.310
-0.570,-0.400,0.470
-0.480,-9.670,-2.890
-1.120,-1.700,0.760
-0.580,-2.200,0.410
-0.610,-1.650,0.750
-0.720,-1.420,0.810
-0.430,-0.630,0.400
0.530,-0.420,-1.580
1.460,-7.170,-3.390
-4.130,-32.270,-4.830
-8.820,-30.560,-5.850
-8.820,-30.560,-5.850
-8.820,-30.560,-5.850
-8.820,-30.560,-5.850
-8.820,-30.560,-5.850
-8.820,-30.560,-5.850
-17.720,-20.410,-7.910
-17.720,-20.410,-7.910
-17.720,-20.410,-7.910
-17.720,-20.410,-7.910
-17.720,-20.410,-7.910
-19.100,-12.450,-9.270
-19.100,-12.450,-9.270
-19.100,-12.450,-9.270
-19.100,-12.450,-9.270
-19.100,-12.450,-9.270
-18.120,-4.030,-10.990
-18.120,-4.030,-10.990
-18.120,-4.030,-10.990
-11.090,3.100,-13.320
-11.090,3.100,-13.320
-11.090,3.100,-13.320
-11.090,3.100,-13.320
-8.930,-0.740,-13.060
-8.930,-0.740,-13.060
-8.930,-0.740,-13.060
-8.930,-0.740,-13.060
-8.930,-0.740,-13.060
-8.930,-0.740,-13.060
-10.650,-5.520,-13.490
-10.650,-5.520,-13.490
-10.650,-5.520,-13.490
,,,
-0.720,-1.380,0.670
-0.490,1.210,0.310
-0.570,-0.400,0.470
-0.480,-9.670,-2.890
-1.120,-1.700,0.760
-0.580,-2.200,0.410
-0.610,-1.650,0.750
-0.720,-1.420,0.810
-0.430,-0.630,0.400
0.530,-0.420,-1.580
1.460,-7.170,-3.390
-0.510,-2.520,0.710
-0.120,-1.960,1.760
-0.660,-2.230,0.840
-0.500,-1.120,0.250
0.840,-6.010,-0.450
-3.340,-16.250,-5.200
-16.910,-7.120,-8.560
-16.910,-7.120,-8.560
-14.770,-4.120,-8.730
-14.770,-4.120,-8.730
-14.770,-4.120,-8.730
-14.770,-4.120,-8.730
-12.800,-1.360,-9.730
-12.800,-1.360,-9.730
-12.800,-1.360,-9.730
-11.260,4.970,-11.690
-11.260,4.970,-11.690
-11.260,4.970,-11.690
-11.260,4.970,-11.690
-11.260,4.970,-11.690
-11.260,4.970,-11.690
-10.190,8.490,-12.940
-10.190,8.490,-12.940
-10.190,8.490,-12.940
-10.190,8.490,-12.940
-10.190,8.490,-12.940
-9.240,11.270,-13.200
-9.240,11.270,-13.200
-9.240,11.270,-13.200
-9.240,11.270,-13.200
-9.240,11.270,-13.200
-8.360,11.660,-10.600
-8.360,11.660,-10.600
-8.360,11.660,-10.600
-11.140,7.720,-3.940
-11.140,7.720,-3.940
-11.140,7.720,-3.940
-11.140,7.720,-3.940
-15.600,6.650,-3.160
,,,
-0.580,-2.200,0.410
-0.610,-1.650,0.750
-0.720,-1.420,0.810
-0.430,-0.630,0.400
0.530,-0.420,-1.580
1.460,-7.170,-3.390
-0.510,-2.520,0.710
-0.120,-1.960,1.760
-0.660,-2.230,0.840
-0.500,-1.120,0.250
0.840,-6.010,-0.450
-3.340,-16.250,-5.200
-0.130,-1.640,0.120
0.570,-3.250,0.330
-1.040,-2.110,-0.380
-2.510,2.300,-0.740
2.100,-14.280,-0.300
-16.560,-12.990,-3.170
-16.360,-10.950,-4.550
-16.360,-10.950,-4.550
-16.360,-10.950,-4.550
-16.360,-10.950,-4.550
-16.360,-10.950,-4.550
-16.360,-10.950,-4.550
-17.820,-7.560,-8.220
-17.820,-7.560,-8.220
-17.820,-7.560,-8.220
-17.820,-7.560,-8.220
-17.780,-5.120,-9.790
-17.780,-5.120,-9.790
-17.780,-5.120,-9.790
-17.780,-5.120,-9.790
-17.630,-0.870,-12.110
-17.630,-0.870,-12.110
-17.630,-0.870,-12.110
-17.630,-0.870,-12.110
-17.290,10.080,-15.960
-17.290,10.080,-15.960
-17.290,10.080,-15.960
-17.290,10.080,-15.960
-17.290,10.080,-15.960
-13.830,14.250,-14.220
-13.830,14.250,-14.220
-13.830,14.250,-14.220
-13.830,14.250,-14.220
-13.830,14.250,-14.220
-13.830,14.250,-14.220
-7.090,16.120,-11.620
-7.090,16.120,-11.620
-7.090,16.120,-11.620
,,,
-0.660,-2.230,0.840
-0.500,-1.120,0.250
0.840,-6.010,-0.450
-3.340,-16.250,-5.200
-0.130,-1.640,0.120
0.570,-3.250,0.330
-1.040,-2.110,-0.380
-2.510,2.300,-0.740
2.100,-14.280,-0.300
-0.580,-1.440,-0.150
0.220,-0.820,0.670
-0.850,0.030,0.540
0.000,0.900,0.330
-0.470,1.660,1.040
0.460,0.530,-0.170
-0.090,0.140,0.890
3.530,6.240,0.260
-0.930,-3.430,-0.240
-0.930,-3.430,-0.240
-1.530,-3.920,-0.180
-1.530,-3.920,-0.180
-1.530,-3.920,-0.180
-1.530,-3.920,-0.180
-1.530,-3.920,-0.180
-1.530,-3.920,-0.180
-2.780,-4.180,0.510
-2.780,-4.180,0.510
-2.780,-4.180,0.510
-2.780,-4.180,0.510
-2.780,-4.180,0.510
-3.650,-4.290,0.490
-3.650,-4.290,0.490
-3.650,-4.290,0.490
-3.650,-4.290,0.490
-4.060,-4.420,0.550
-4.060,-4.420,0.550
-4.060,-4.420,0.550
-4.060,-4.420,0.550
-4.140,-4.680,0.510
-4.140,-4.680,0.510
-4.140,-4.680,0.510
-4.140,-4.680,0.510
-4.050,-5.410,0.190
-4.050,-5.410,0.190
-4.050,-5.410,0.190
-4.050,-5.410,0.190
-4.050,-5.410,0.190
-3.950,-5.630,-0.060
-3.950,-5.630,-0.060
-3.950,-5.630,-0.060
,,,
-1.040,-2.110,-0.380
-2.510,2.300,-0.740
2.100,-14.280,-0.300
-0.580,-1.440,-0.150
0.220,-0.820,0.670
-0.850,0.030,0.540
0.000,0.900,0.330
-0.470,1.660,1.040
0.460,0.530,-0.170
-0.090,0.140,0.890
3.530,6.240,0.260
-1.690,-1.030,-0.580
-0.610,-3.330,-1.010
-0.830,-3.430,-0.120
-0.390,-1.750,0.210
-0.030,-3.510,-0.050
-7.560,-33.520,-1.140
-25.450,11.210,-13.260
-25.450,11.210,-13.260
-25.450,11.210,-13.260
-33.710,15.170,-5.680
-33.710,15.170,-5.680
-33.710,15.170,-5.680
-33.710,15.170,-5.680
-25.780,14.130,-5.560
-25.780,14.130,-5.560
-25.780,14.130,-5.560
-19.100,14.450,-3.910
-19.100,14.450,-3.910
-19.100,14.450,-3.910
-19.100,14.450,-3.910
-19.100,14.450,-3.910
-19.100,14.450,-3.910
-26.130,10.450,-2.150
-26.130,10.450,-2.150
-26.130,10.450,-2.150
-26.130,10.450,-2.150
-26.130,10.450,-2.150
-26.130,10.450,-2.150
-26.350,9.390,0.770
-26.350,9.390,0.770
-26.350,9.390,0.770
-23.690,9.290,2.050
-23.690,9.290,2.050
-23.690,9.290,2.050
-23.690,9.290,2.050
-19.790,11.230,3.000
-19.790,11.230,3.000
-19.790,11.230,3.000
-19.790,11.230,3.000
,,,
0.460,0.530,-0.170
-0.090,0.140,0.890
3.530,6.240,0.260
-1.690,-1.030,-0.580
-0.610,-3.330,-1.010
-0.830,-3.430,-0.120
-0.390,-1.750,0.210
-0.030,-3.510,-0.050
-7.560,-33.520,-1.140
-0.260,-2.070,-0.010
-0.250,-1.480,0.510
-0.220,-0.540,0.550
-0.610,0.840,0.760
-0.120,-0.710,0.040
-0.270,0.190,0.130
-0.670,-0.140,1.140
2.980,-22.790,-1.400
-30.980,-18.680,-9.430
-30.980,-18.680,-9.430
-30.980,-18.680,-9.430
-30.980,-18.680,-9.430
-30.980,-18.680,-9.430
-29.660,-12.680,-13.600
-29.660,-12.680,-13.600
-29.660,-12.680,-13.600
-29.660,-12.680,-13.600
-28.290,-9.440,-15.300
-28.290,-9.440,-15.300
-28.290,-9.440,-15.300
-28.290,-9.440,-15.300
-26.410,-5.340,-16.690
-26.410,-5.340,-16.690
-26.410,-5.340,-16.690
-24.290,-0.810,-18.240
-24.290,-0.810,-18.240
-24.290,-0.810,-18.240
-24.290,-0.810,-18.240
-24.290,-0.810,-18.240
-24.290,-0.810,-18.240
-22.530,10.790,-13.920
-22.530,10.790,-13.920
-22.530,10.790,-13.920
-22.530,10.790,-13.920
-22.530,10.790,-13.920
-22.030,12.140,-10.100
-22.030,12.140,-10.100
-22.030,12.140,-10.100
-22.030,12.140,-10.100
-22.030,12.140,-10.100
-21.920,10.600,-9.570
,,,
-0.030,-3.510,-0.050
-7.560,-33.520,-1.140
-0.260,-2.070,-0.010
-0.250,-1.480,0.510
-0.220,-0.540,0.550
-0.610,0.840,0.760
-0.120,-0.710,0.040
-0.270,0.190,0.130
-0.670,-0.140,1.140
2.980,-22.790,-1.400
-0.240,-1.800,-0.170
-0.430,-1.490,0.450
-0.100,-1.280,0.160
0.000,-0.670,0.310
0.200,0.280,0.980
-0.850,-1.470,-0.090
-2.670,-6.040,1.100
-22.570,-45.660,-11.610
-29.370,-46.400,-15.240
-29.370,-46.400,-15.240
-29.370,-46.400,-15.240
-29.370,-46.400,-15.240
-29.370,-46.400,-15.240
-35.180,-47.030,-18.520
-35.180,-47.030,-18.520
-35.180,-47.030,-18.520
-35.180,-47.030,-18.520
-35.180,-47.030,-18.520
-35.180,-47.030,-18.520
-40.670,-28.750,-24.880
-40.670,-28.750,-24.880
-40.670,-28.750,-24.880
-40.670,-28.750,-24.880
-39.710,-16.070,-30.300
-39.710,-16.070,-30.300
-39.710,-16.070,-30.300
-39.710,-16.070,-30.300
-36.780,-3.470,-34.140
-36.780,-3.470,-34.140
-36.780,-3.470,-34.140
-36.780,-3.470,-34.140
-37.190,26.870,-35.820
-37.190,26.870,-35.820
-37.190,26.870,-35.820
-37.190,26.870,-35.820
-37.190,26.870,-35.820
-37.190,26.870,-35.820
-35.630,30.580,-30.050
-35.630,30.580,-30.050
-35.630,30.580,-30.050
,,,
-0.670,-0.140,1.140
2.980,-22.790,-1.400
-0.240,-1.800,-0.170
-0.430,-1.490,0.450
-0.100,-1.280,0.160
0.000,-0.670,0.310
0.200,0.280,0.980
-0.850,-1.470,-0.090
-2.670,-6.040,1.100
0.210,-2.070,-0.530
0.530,-1.900,-1.020
0.450,-2.340,0.040
0.060,-1.150,0.810
-0.210,-2.290,0.880
0.000,-1.780,0.500
0.000,-7.490,-0.510
-9.620,-40.600,-3.080
-23.360,18.760,-6.470
-23.360,18.760,-6.470
-23.360,18.760,-6.470
-23.360,18.760,-6.470
-19.410,15.050,-4.610
-19.410,15.050,-4.610
-19.410,15.050,-4.610
-19.900,9.470,-2.920
-19.900,9.470,-2.920
-19.900,9.470,-2.920
-19.900,9.470,-2.920
-19.900,9.470,-2.920
-19.900,9.470,-2.920
-22.310,6.020,-0.310
-22.310,6.020,-0.310
-22.310,6.020,-0.310
-22.310,6.020,-0.310
-22.310,6.020,-0.310
-22.310,6.020,-0.310
-25.130,7.770,4.150
-25.130,7.770,4.150
-25.130,7.770,4.150
-25.130,7.770,4.150
-23.090,10.670,4.690
-23.090,10.670,4.690
-23.090,10.670,4.690
-23.090,10.670,4.690
-20.170,12.300,4.980
-20.170,12.300,4.980
-20.170,12.300,4.980
-16.530,13.430,1.820
-16.530,13.430,1.820
-16.530,13.430,1.820
,,,
-2.670,-6.040,1.100
0.210,-2.070,-0.530
0.530,-1.900,-1.020
0.450,-2.340,0.040
0.060,-1.150,0.810
-0.210,-2.290,0.880
0.000,-1.780,0.500
0.000,-7.490,-0.510
-9.620,-40.600,-3.080
0.030,-1.650,0.180
0.970,-1.910,0.490
0.000,-1.780,0.710
0.260,-1.630,0.420
0.110,-1.530,0.310
0.050,-1.050,0.430
0.790,-1.870,0.160
3.150,-13.300,-5.910
-13.520,-24.580,-15.020
-13.520,-24.580,-15.020
-13.520,-24.580,-15.020
-16.760,-17.820,-17.560
-16.760,-17.820,-17.560
-16.760,-17.820,-17.560
-16.760,-17.820,-17.560
-21.180,-2.200,-26.530
-21.180,-2.200,-26.530
-21.180,-2.200,-26.530
-21.090,7.040,-26.310
-21.090,7.040,-26.310
-21.090,7.040,-26.310
-21.090,7.040,-26.310
-20.860,13.760,-21.720
-20.860,13.760,-21.720
-20.860,13.760,-21.720
-20.860,13.760,-21.720
-20.860,13.760,-21.720
-20.860,13.760,-21.720
-33.720,14.170,1.080
-33.720,14.170,1.080
-33.720,14.170,1.080
-33.720,14.170,1.080
-33.720,14.170,1.080
-32.040,10.320,-4.510
-32.040,10.320,-4.510
-32.040,10.320,-4.510
-32.040,10.320,-4.510
-32.040,10.320,-4.510
-26.040,8.950,-7.820
-26.040,8.950,-7.820
-26.040,8.950,-7.820
,,,
0.260,-1.630,0.420
0.110,-1.530,0.310
0.050,-1.050,0.430
0.790,-1.870,0.160
3.150,-13.300,-5.910
0.680,-1.480,-0.580
0.620,-2.620,-0.050
0.180,-1.820,0.160
-0.060,-0.840,0.400
-0.430,-0.770,0.360
-0.450,-0.250,0.410
0.090,-0.400,0.310
-0.230,-1.160,0.210
0.190,-1.020,0.050
0.250,-0.010,0.800
0.370,-2.970,-1.030
3.280,-14.760,-6.220
-8.440,-20.530,-9.450
-8.440,-20.530,-9.450
-8.440,-20.530,-9.450
-8.440,-20.530,-9.450
-8.440,-20.530,-9.450
-9.860,-16.780,-10.660
-9.860,-16.780,-10.660
-9.860,-16.780,-10.660
-9.860,-16.780,-10.660
-12.650,-8.060,-16.660
-12.650,-8.060,-16.660
-12.650,-8.060,-16.660
-12.650,-8.060,-16.660
-14.320,-3.520,-19.180
-14.320,-3.520,-19.180
-14.320,-3.520,-19.180
-14.320,-3.520,-19.180
-15.930,0.940,-20.750
-15.930,0.940,-20.750
-15.930,0.940,-20.750
-15.930,0.940,-20.750
-15.930,0.940,-20.750
-18.530,11.630,-17.600
-18.530,11.630,-17.600
-18.530,11.630,-17.600
-18.530,11.630,-17.600
-18.530,11.630,-17.600
-18.530,11.630,-17.600
-18.550,15.620,-13.540
-18.550,15.620,-13.540
-18.550,15.620,-13.540
-18.550,15.620,-13.540
-17.710,15.120,-7.960
,,,
-0.060,-0.840,0.400
-0.430,-0.770,0.360
-0.450,-0.250,0.410
0.090,-0.400,0.310
-0.230,-1.160,0.210
0.190,-1.020,0.050
0.250,-0.010,0.800
0.370,-2.970,-1.030
3.280,-14.760,-6.220
0.300,-1.380,-0.340
0.950,-2.940,0.630
0.390,-1.700,0.190
0.140,-0.440,0.530
0.570,0.290,-0.050
0.570,-1.710,0.090
1.320,-3.380,-1.640
3.520,-9.940,-4.170
5.820,-40.530,-10.270
1.910,-38.300,-12.010
1.910,-38.300,-12.010
1.910,-38.300,-12.010
1.910,-38.300,-12.010
1.910,-38.300,-12.010
-2.370,-34.620,-13.280
-2.370,-34.620,-13.280
-2.370,-34.620,-13.280
-2.370,-34.620,-13.280
-2.370,-34.620,-13.280
-2.370,-34.620,-13.280
-13.500,-22.220,-16.650
-13.500,-22.220,-16.650
-13.500,-22.220,-16.650
-13.500,-22.220,-16.650
-17.310,-14.950,-17.250
-17.310,-14.950,-17.250
-17.310,-14.950,-17.250
-17.310,-14.950,-17.250
-20.180,-5.940,-19.070
-20.180,-5.940,-19.070
-20.180,-5.940,-19.070
-21.500,2.070,-20.100
-21.500,2.070,-20.100
-21.500,2.070,-20.100
-21.500,2.070,-20.100
-21.500,2.070,-20.100
-21.500,2.070,-20.100
-31.780,21.420,-5.600
-31.780,21.420,-5.600
-31.780,21.420,-5.600
-31.780,21.420,-5.600
,,,
0.950,-2.940,0.630
0.390,-1.700,0.190
0.140,-0.440,0.530
0.570,0.290,-0.050
0.570,-1.710,0.090
1.320,-3.380,-1.640
3.520,-9.940,-4.170
1.130,-1.490,0.560
0.720,0.580,0.350
0.540,-1.390,0.940
0.740,-2.910,-0.310
0.590,-2.340,0.290
0.580,-1.260,0.170
-0.170,-0.100,1.830
1.080,-0.380,0.970
-0.230,-2.020,0.470
2.710,-7.580,-1.220
2.900,-45.480,-11.830
-6.110,-46.410,-13.210
-6.110,-46.410,-13.210
-6.110,-46.410,-13.210
-6.110,-46.410,-13.210
-10.210,-43.740,-13.440
-10.210,-43.740,-13.440
-10.210,-43.740,-13.440
-10.210,-43.740,-13.440
-10.210,-43.740,-13.440
-10.210,-43.740,-13.440
-13.220,-38.930,-14.200
-13.220,-38.930,-14.200
-13.220,-38.930,-14.200
-13.220,-38.930,-14.200
-13.220,-38.930,-14.200
-17.100,-26.630,-18.150
-17.100,-26.630,-18.150
-17.100,-26.630,-18.150
-17.100,-26.630,-18.150
-19.930,-18.080,-22.000
-19.930,-18.080,-22.000
-19.930,-18.080,-22.000
-19.930,-18.080,-22.000
-21.770,-10.950,-24.780
-21.770,-10.950,-24.780
-21.770,-10.950,-24.780
-21.770,-10.950,-24.780
-25.480,5.400,-28.090
-25.480,5.400,-28.090
-25.480,5.400,-28.090
-25.480,5.400,-28.090
-25.480,5.400,-28.090
,,,
0.720,0.580,0.350
0.540,-1.390,0.940
0.740,-2.910,-0.310
0.590,-2.340,0.290
0.580,-1.260,0.170
-0.170,-0.100,1.830
1.080,-0.380,0.970
-0.230,-2.020,0.470
2.710,-7.580,-1.220
-0.260,-0.730,0.760
0.600,-1.520,0.200
0.700,-0.970,-0.310
0.790,-2.080,-0.160
0.710,-2.470,-0.120
0.180,-1.320,-0.250
1.790,-3.280,-0.440
6.050,-9.890,-4.860
10.310,-25.490,-17.390
10.310,-25.490,-17.390
10.310,-25.490,-17.390
10.310,-25.490,-17.390
7.300,-26.470,-15.910
7.300,-26.470,-15.910
7.300,-26.470,-15.910
7.300,-26.470,-15.910
4.170,-25.180,-14.710
4.170,-25.180,-14.710
4.170,-25.180,-14.710
4.170,-25.180,-14.710
-0.330,-23.370,-14.160
-0.330,-23.370,-14.160
-0.330,-23.370,-14.160
-0.330,-23.370,-14.160
-0.330,-23.370,-14.160
-5.760,-20.270,-14.090
-5.760,-20.270,-14.090
-5.760,-20.270,-14.090
-5.760,-20.270,-14.090
-5.760,-20.270,-14.090
-5.760,-20.270,-14.090
-14.100,-8.980,-15.290
-14.100,-8.980,-15.290
-14.100,-8.980,-15.290
-14.100,-8.980,-15.290
-15.490,-3.260,-14.770
-15.490,-3.260,-14.770
-15.490,-3.260,-14.770
-15.490,-3.260,-14.770
-17.660,1.270,-15.450
-17.660,1.270,-15.450
,,,
-0.230,-2.020,0.470
2.710,-7.580,-1.220
-0.260,-0.730,0.760
0.600,-1.520,0.200
0.700,-0.970,-0.310
0.790,-2.080,-0.160
0.710,-2.470,-0.120
0.180,-1.320,-0.250
1.790,-3.280,-0.440
6.050,-9.890,-4.860
1.840,-2.410,0.280
0.940,-1.750,0.290
0.950,-0.670,-0.730
0.450,-0.400,-0.050
0.500,-1.820,0.110
0.930,-2.900,-0.470
5.460,-11.920,-4.080
-10.160,-39.450,-4.810
-10.160,-39.450,-4.810
-14.080,-35.170,-6.860
-14.080,-35.170,-6.860
-14.080,-35.170,-6.860
-14.080,-35.170,-6.860
-14.080,-35.170,-6.860
-14.080,-35.170,-6.860
-18.300,-29.160,-10.070
-18.300,-29.160,-10.070
-18.300,-29.160,-10.070
-18.300,-29.160,-10.070
-24.400,-13.290,-18.950
-24.400,-13.290,-18.950
-24.400,-13.290,-18.950
-24.400,-13.290,-18.950
-24.020,-4.640,-22.990
-24.020,-4.640,-22.990
-24.020,-4.640,-22.990
-24.630,3.280,-26.950
-24.630,3.280,-26.950
-24.630,3.280,-26.950
-24.630,3.280,-26.950
-24.630,3.280,-26.950
-24.630,3.280,-26.950
-24.540,18.710,-27.810
-24.540,18.710,-27.810
-24.540,18.710,-27.810
-24.540,18.710,-27.810
-24.540,18.710,-27.810
-23.150,26.210,-21.000
-23.150,26.210,-21.000
-23.150,26.210,-21.000
,,,
0.710,-2.470,-0.120
0.180,-1.320,-0.250
1.790,-3.280,-0.440
6.050,-9.890,-4.860
1.840,-2.410,0.280
0.940,-1.750,0.290
0.950,-0.670,-0.730
0.450,-0.400,-0.050
0.500,-1.820,0.110
0.930,-2.900,-0.470
5.460,-11.920,-4.080
-0.090,-0.270,1.540
0.880,-0.910,0.790
1.140,-1.240,0.150
0.850,-1.540,-0.050
1.450,-3.260,-0.430
1.110,-6.580,-1.670
1.490,-43.230,-6.200
-6.150,-45.460,-4.860
-6.150,-45.460,-4.860
-6.150,-45.460,-4.860
-6.150,-45.460,-4.860
-7.540,-43.890,-4.850
-7.540,-43.890,-4.850
-7.540,-43.890,-4.850
-7.540,-43.890,-4.850
-7.540,-43.890,-4.850
-9.140,-41.640,-5.170
-9.140,-41.640,-5.170
-9.140,-41.640,-5.170
-9.140,-41.640,-5.170
-9.140,-41.640,-5.170
-9.140,-41.640,-5.170
-10.770,-38.620,-6.630
-10.770,-38.620,-6.630
-10.770,-38.620,-6.630
-10.770,-38.620,-6.630
-18.190,-28.330,-15.790
-18.190,-28.330,-15.790
-18.190,-28.330,-15.790
-18.190,-28.330,-15.790
-21.330,-18.840,-21.880
-21.330,-18.840,-21.880
-21.330,-18.840,-21.880
-21.330,-18.840,-21.880
-24.290,-9.680,-25.060
-24.290,-9.680,-25.060
-24.290,-9.680,-25.060
-24.290,-9.680,-25.060
-24.290,-9.680,-25.060
,,,
0.940,-1.750,0.290
0.950,-0.670,-0.730
0.450,-0.400,-0.050
0.500,-1.820,0.110
0.930,-2.900,-0.470
5.460,-11.920,-4.080
-0.090,-0.270,1.540
0.880,-0.910,0.790
1.140,-1.240,0.150
0.850,-1.540,-0.050
1.450,-3.260,-0.430
1.110,-6.580,-1.670
1.000,-2.200,0.170
1.450,-2.770,-1.210
1.290,-2.890,-1.340
1.060,-4.280,-1.770
6.380,-18.160,-15.230
-14.080,-14.990,-13.640
-14.080,-14.990,-13.640
-14.080,-14.990,-13.640
-13.440,-10.270,-17.870
-13.440,-10.270,-17.870
-13.440,-10.270,-17.870
-13.440,-10.270,-17.870
-13.300,-5.390,-22.040
-13.300,-5.390,-22.040
-13.300,-5.390,-22.040
-16.890,7.260,-23.110
-16.890,7.260,-23.110
-16.890,7.260,-23.110
-16.890,7.260,-23.110
-20.200,14.330,-19.600
-20.200,14.330,-19.600
-20.200,14.330,-19.600
-20.200,14.330,-19.600
-20.200,14.330,-19.600
-20.200,14.330,-19.600
-24.030,16.300,-15.910
-24.030,16.300,-15.910
-24.030,16.300,-15.910
-24.030,16.300,-15.910
-24.030,16.300,-15.910
-29.660,17.310,-10.800
-29.660,17.310,-10.800
-29.660,17.310,-10.800
-29.660,17.310,-10.800
-29.660,17.310,-10.800
-30.660,21.190,-7.190
-30.660,21.190,-7.190
-30.660,21.190,-7.190
,,,
-0.090,-0.270,1.540
0.880,-0.910,0.790
1.140,-1.240,0.150
0.850,-1.540,-0.050
1.450,-3.260,-0.430
1.110,-6.580,-1.670
1.000,-2.200,0.170
1.450,-2.770,-1.210
1.290,-2.890,-1.340
1.060,-4.280,-1.770
6.380,-18.160,-15.230
0.730,-2.740,0.230
1.320,-3.000,-0.410
0.940,-2.660,-0.010
1.470,-3.130,-1.610
0.950,-4.910,-1.010
15.970,-43.940,-1.610
-32.830,7.460,-0.690
-32.830,7.460,-0.690
-32.830,7.460,-0.690
-32.830,7.460,-0.690
-32.830,7.460,-0.690
-32.520,14.710,3.200
-32.520,14.710,3.200
-32.520,14.710,3.200
-32.520,14.710,3.200
-32.520,14.710,3.200
-32.520,14.710,3.200
-32.940,25.360,6.020
-32.940,25.360,6.020
-32.940,25.360,6.020
-32.940,25.360,6.020
-32.390,28.520,8.320
-32.390,28.520,8.320
-32.390,28.520,8.320
-31.530,23.000,12.520
-31.530,23.000,12.520
-31.530,23.000,12.520
-31.530,23.000,12.520
-25.050,17.880,15.050
-25.050,17.880,15.050
-25.050,17.880,15.050
-25.050,17.880,15.050
-25.050,17.880,15.050
-25.050,17.880,15.050
-20.680,12.690,13.790
-20.680,12.690,13.790
-20.680,12.690,13.790
-20.680,12.690,13.790
-20.680,12.690,13.790
,,,
1.290,-2.890,-1.340
1.060,-4.280,-1.770
6.380,-18.160,-15.230
0.730,-2.740,0.230
1.320,-3.000,-0.410
0.940,-2.660,-0.010
1.470,-3.130,-1.610
0.950,-4.910,-1.010
15.970,-43.940,-1.610
0.750,-1.500,0.430
0.890,-0.740,-0.280
1.220,-2.400,-0.020
1.740,-3.400,0.410
1.000,-2.810,0.620
0.930,-3.750,0.450
1.040,-6.190,0.770
0.890,-21.630,-4.400
-21.890,-3.120,-15.810
-21.890,-3.120,-15.810
-24.490,5.190,-16.800
-24.490,5.190,-16.800
-24.490,5.190,-16.800
-24.490,5.190,-16.800
-32.020,18.400,-7.550
-32.020,18.400,-7.550
-32.020,18.400,-7.550
-32.020,18.400,-7.550
-32.020,18.400,-7.550
-32.990,13.260,-1.370
-32.990,13.260,-1.370
-32.990,13.260,-1.370
-32.990,13.260,-1.370
-32.990,13.260,-1.370
-32.990,13.260,-1.370
-32.000,8.290,2.430
-32.000,8.290,2.430
-32.000,8.290,2.430
-32.000,8.290,2.430
-31.180,8.890,5.620
-31.180,8.890,5.620
-31.180,8.890,5.620
-31.180,8.890,5.620
-30.640,8.940,5.910
-30.640,8.940,5.910
-30.640,8.940,5.910
-30.640,8.940,5.910
-30.350,10.000,6.540
-30.350,10.000,6.540
-30.350,10.000,6.540
-30.350,10.000,6.540
,,,
1.740,-3.400,0.410
1.000,-2.810,0.620
0.930,-3.750,0.450
1.040,-6.190,0.770
0.890,-21.630,-4.400
-0.100,-0.390,1.240
0.500,-1.090,0.240
1.340,-2.780,-0.360
0.790,-1.870,0.050
0.950,-2.530,-0.170
1.780,-3.970,-0.490
1.330,-3.300,0.720
0.540,-2.720,0.850
-0.230,-0.700,1.320
1.590,-1.350,0.900
2.390,-5.970,-0.560
-0.580,-17.590,-0.510
-11.600,-2.060,-3.750
-11.600,-2.060,-3.750
-13.850,2.390,-2.880
-13.850,2.390,-2.880
-13.850,2.390,-2.880
-17.760,8.170,-3.530
-17.760,8.170,-3.530
-17.760,8.170,-3.530
-17.760,8.170,-3.530
-17.370,10.770,-3.860
-17.370,10.770,-3.860
-17.370,10.770,-3.860
-17.370,10.770,-3.860
-17.370,10.770,-3.860
-17.370,10.770,-3.860
-16.250,13.170,-3.760
-16.250,13.170,-3.760
-16.250,13.170,-3.760
-16.250,13.170,-3.760
-16.250,13.170,-3.760
-15.050,13.030,-1.160
-15.050,13.030,-1.160
-15.050,13.030,-1.160
-15.050,13.030,-1.160
-13.090,11.740,1.160
-13.090,11.740,1.160
-13.090,11.740,1.160
-13.090,11.740,1.160
-11.320,10.130,2.590
-11.320,10.130,2.590
-11.320,10.130,2.590
-11.320,10.130,2.590
-10.290,7.770,4.530
,,,
0.960,-1.780,0.610
1.760,-2.090,-0.470
1.790,-2.320,-0.240
1.030,-1.650,0.460
1.400,-1.830,0.130
1.340,-1.290,0.210
0.810,-1.330,0.590
0.780,-1.530,0.780
1.030,-1.010,0.600
0.480,-0.950,0.430
0.570,-0.930,-0.160
0.510,-0.490,0.340
0.590,-1.010,0.370
0.550,-0.710,0.130
-0.120,-0.110,0.170
0.940,-2.090,-0.840
5.270,-13.700,-5.300
-10.060,-21.960,-15.910
-10.060,-21.960,-15.910
-9.790,-18.540,-17.440
-9.790,-18.540,-17.440
-9.790,-18.540,-17.440
-9.790,-18.540,-17.440
-10.680,-15.880,-18.500
-10.680,-15.880,-18.500
-10.680,-15.880,-18.500
-10.680,-15.880,-18.500
-10.680,-15.880,-18.500
-11.520,-11.820,-21.210
-11.520,-11.820,-21.210
-11.520,-11.820,-21.210
-11.520,-11.820,-21.210
-11.520,-11.820,-21.210
-11.520,-11.820,-21.210
-14.260,1.550,-24.810
-14.260,1.550,-24.810
-14.260,1.550,-24.810
-14.260,1.550,-24.810
-16.750,8.930,-20.570
-16.750,8.930,-20.570
-16.750,8.930,-20.570
-20.240,14.210,-10.740
-20.240,14.210,-10.740
-20.240,14.210,-10.740
-20.240,14.210,-10.740
-29.670,12.790,-2.450
-29.670,12.790,-2.450
-29.670,12.790,-2.450
-29.670,12.790,-2.450
-29.670,12.790,-2.450
,,,
-0.120,-0.110,0.170
0.940,-2.090,-0.840
5.270,-13.700,-5.300
0.870,-0.570,0.000
-0.110,-0.250,0.560
-0.340,-0.180,1.130
-0.430,-0.060,1.000
0.020,-0.430,0.550
1.260,-2.220,-0.310
0.490,-0.800,-0.090
0.570,-0.320,0.020
0.200,-0.100,0.300
0.710,-1.260,-0.290
1.020,-1.420,-0.180
0.700,-1.650,-0.330
0.450,-2.210,-0.270
4.230,-14.180,-1.120
-9.180,-23.410,-0.960
-9.180,-23.410,-0.960
-9.180,-23.410,-0.960
-10.980,-21.070,-1.970
-10.980,-21.070,-1.970
-10.980,-21.070,-1.970
-10.980,-21.070,-1.970
-13.490,-17.030,-3.390
-13.490,-17.030,-3.390
-13.490,-17.030,-3.390
-13.490,-17.030,-3.390
-13.490,-17.030,-3.390
-17.130,-5.260,-6.960
-17.130,-5.260,-6.960
-17.130,-5.260,-6.960
-17.130,-5.260,-6.960
-17.130,-5.260,-6.960
-17.130,-5.260,-6.960
-19.080,1.380,-8.040
-19.080,1.380,-8.040
-19.080,1.380,-8.040
-19.080,1.380,-8.040
-20.690,8.910,-10.690
-20.690,8.910,-10.690
-20.690,8.910,-10.690
-20.690,8.910,-10.690
-21.660,17.230,-13.810
-21.660,17.230,-13.810
-21.660,17.230,-13.810
-21.660,17.230,-13.810
-21.040,25.700,-7.600
-21.040,25.700,-7.600
-21.040,25.700,-7.600
,,,
1.260,-2.220,-0.310
0.490,-0.800,-0.090
0.570,-0.320,0.020
0.200,-0.100,0.300
0.710,-1.260,-0.290
1.020,-1.420,-0.180
0.700,-1.650,-0.330
0.450,-2.210,-0.270
4.230,-14.180,-1.120
1.280,-1.420,-0.860
1.720,-1.020,-0.670
1.860,-1.170,-1.270
1.550,-1.380,-0.680
0.330,-0.930,0.190
0.330,-1.290,0.300
1.300,-3.930,-0.080
3.230,-8.770,-0.130
-2.800,-32.940,-2.570
-2.800,-32.940,-2.570
-3.300,-34.030,-5.020
-3.300,-34.030,-5.020
-3.300,-34.030,-5.020
-3.300,-34.030,-5.020
-5.880,-30.080,-12.540
-5.880,-30.080,-12.540
-5.880,-30.080,-12.540
-5.880,-30.080,-12.540
-7.130,-25.510,-16.540
-7.130,-25.510,-16.540
-7.130,-25.510,-16.540
-7.130,-25.510,-16.540
-8.800,-19.940,-20.170
-8.800,-19.940,-20.170
-8.800,-19.940,-20.170
-8.800,-19.940,-20.170
-8.800,-19.940,-20.170
-13.900,-7.830,-23.950
-13.900,-7.830,-23.950
-13.900,-7.830,-23.950
-13.900,-7.830,-23.950
-13.900,-7.830,-23.950
-15.020,-2.970,-23.250
-15.020,-2.970,-23.250
-15.020,-2.970,-23.250
-15.020,-2.970,-23.250
-15.020,-2.970,-23.250
-16.510,1.940,-21.530
-16.510,1.940,-21.530
-16.510,1.940,-21.530
-23.450,14.530,-15.420
,,,
1.750,-2.050,-0.390
1.270,-1.940,-0.300
0.580,-1.060,0.050
0.750,-0.670,0.080
0.990,-1.170,0.250
0.890,-0.980,-0.200
0.870,-1.070,-0.180
0.340,-1.080,0.180
0.150,-0.250,0.130
0.340,-0.350,0.000
0.660,-1.070,-0.080
0.080,0.060,0.270
0.110,-0.390,0.000
0.000,-0.880,0.040
0.560,-1.190,-0.250
2.100,-3.150,-0.900
1.400,-6.400,-1.270
-1.380,-13.320,-1.760
-1.750,-13.100,-1.820
-1.750,-13.100,-1.820
-1.750,-13.100,-1.820
-1.750,-13.100,-1.820
-2.110,-13.050,-1.940
-2.110,-13.050,-1.940
-2.110,-13.050,-1.940
-2.760,-12.810,-3.550
-2.760,-12.810,-3.550
-2.760,-12.810,-3.550
-2.760,-12.810,-3.550
-2.760,-12.810,-3.550
-2.760,-12.810,-3.550
-2.830,-12.300,-4.120
-2.830,-12.300,-4.120
-2.830,-12.300,-4.120
-2.830,-12.300,-4.120
-2.830,-12.300,-4.120
-2.800,-11.650,-4.400
-2.800,-11.650,-4.400
-2.800,-11.650,-4.400
-2.800,-11.650,-4.400
-2.800,-11.650,-4.400
-3.050,-10.540,-4.840
-3.050,-10.540,-4.840
-3.050,-10.540,-4.840
-5.590,-7.000,-6.470
-5.590,-7.000,-6.470
-5.590,-7.000,-6.470
-5.590,-7.000,-6.470
-6.070,-5.040,-7.130
-6.070,-5.040,-7.130
,,,
0.150,-0.250,0.130
0.340,-0.350,0.000
0.660,-1.070,-0.080
0.080,0.060,0.270
0.110,-0.390,0.000
0.000,-0.880,0.040
0.560,-1.190,-0.250
2.100,-3.150,-0.900
1.400,-6.400,-1.270
-0.090,0.140,-0.580
-0.760,0.860,-0.590
0.200,-1.910,-1.520
0.250,-3.260,-1.380
0.680,-2.460,-0.670
0.510,-2.700,-0.520
0.170,-3.150,-0.440
1.770,-7.700,-3.010
-10.870,-22.200,-2.840
-10.870,-22.200,-2.840
-10.870,-22.200,-2.840
-10.870,-22.200,-2.840
-10.890,-14.830,-11.930
-10.890,-14.830,-11.930
-10.890,-14.830,-11.930
-10.890,-14.830,-11.930
-11.690,-11.200,-14.230
-11.690,-11.200,-14.230
-11.690,-11.200,-14.230
-11.690,-11.200,-14.230
-13.630,-8.350,-15.990
-13.630,-8.350,-15.990
-13.630,-8.350,-15.990
-13.630,-8.350,-15.990
-16.460,0.910,-20.020
-16.460,0.910,-20.020
-16.460,0.910,-20.020
-16.460,0.910,-20.020
-16.460,0.910,-20.020
-15.720,6.550,-19.230
-15.720,6.550,-19.230
-15.720,6.550,-19.230
-15.720,6.550,-19.230
-15.720,6.550,-19.230
-15.720,6.550,-19.230
-17.650,15.230,-14.710
-17.650,15.230,-14.710
-17.650,15.230,-14.710
-17.650,15.230,-14.710
-16.810,21.990,-8.040
-16.810,21.990,-8.040
,,,
-0.090,0.140,-0.580
-0.760,0.860,-0.590
0.200,-1.910,-1.520
0.250,-3.260,-1.380
0.680,-2.460,-0.670
0.510,-2.700,-0.520
0.170,-3.150,-0.440
1.770,-7.700,-3.010
0.480,-0.240,-1.010
1.590,-1.150,-1.080
1.760,-3.240,-2.140
0.810,-2.220,-1.150
0.180,-1.750,0.500
1.340,-3.180,-0.330
0.420,-0.710,-0.110
1.500,-5.880,-0.820
0.840,-17.070,-4.960
-2.410,-6.870,-9.760
-2.410,-6.870,-9.760
-2.410,-6.870,-9.760
-2.410,-6.870,-9.760
-2.410,-6.870,-9.760
-4.090,-4.520,-10.790
-4.090,-4.520,-10.790
-4.090,-4.520,-10.790
-4.090,-4.520,-10.790
-4.090,-4.520,-10.790
-4.600,-3.310,-10.750
-4.600,-3.310,-10.750
-4.600,-3.310,-10.750
-4.600,-3.310,-10.750
-5.350,-2.290,-11.020
-5.350,-2.290,-11.020
-5.350,-2.290,-11.020
-5.350,-2.290,-11.020
-10.130,2.660,-10.170
-10.130,2.660,-10.170
-10.130,2.660,-10.170
-10.130,2.660,-10.170
-13.690,6.590,-8.840
-13.690,6.590,-8.840
-13.690,6.590,-8.840
-13.690,6.590,-8.840
-13.690,6.590,-8.840
-18.410,10.690,-6.820
-18.410,10.690,-6.820
-18.410,10.690,-6.820
-18.410,10.690,-6.820
-18.410,10.690,-6.820
-18.410,10.690,-6.820
,,,
1.760,-3.240,-2.140
0.810,-2.220,-1.150
0.180,-1.750,0.500
1.340,-3.180,-0.330
0.420,-0.710,-0.110
1.500,-5.880,-0.820
0.840,-17.070,-4.960
-0.040,-0.570,0.570
0.540,-0.510,0.910
-1.150,0.570,1.200
0.620,-0.990,0.430
-0.410,-0.970,0.620
-0.410,-0.880,0.260
1.160,-0.900,-1.090
1.270,-1.760,-1.750
0.700,-3.130,-1.140
3.120,-5.710,-1.940
5.600,-16.760,-2.940
5.600,-16.760,-2.940
5.600,-16.760,-2.940
4.810,-18.350,-3.790
4.810,-18.350,-3.790
4.810,-18.350,-3.790
4.810,-18.350,-3.790
4.810,-18.350,-3.790
4.810,-18.350,-3.790
0.930,-21.170,-4.310
0.930,-21.170,-4.310
0.930,-21.170,-4.310
0.930,-21.170,-4.310
0.930,-21.170,-4.310
-0.080,-21.960,-3.740
-0.080,-21.960,-3.740
-0.080,-21.960,-3.740
-0.080,-21.960,-3.740
-0.080,-21.960,-3.740
-0.690,-21.770,-3.210
-0.690,-21.770,-3.210
-0.690,-21.770,-3.210
-1.800,-22.230,-3.160
-1.800,-22.230,-3.160
-1.800,-22.230,-3.160
-1.800,-22.230,-3.160
-2.140,-22.990,-3.340
-2.140,-22.990,-3.340
-2.140,-22.990,-3.340
-2.140,-22.990,-3.340
-2.140,-22.990,-3.340
-2.140,-22.990,-3.340
-3.110,-23.410,-4.080
,,,
0.540,-0.510,0.910
-1.150,0.570,1.200
0.620,-0.990,0.430
-0.410,-0.970,0.620
-0.410,-0.880,0.260
1.160,-0.900,-1.090
1.270,-1.760,-1.750
0.700,-3.130,-1.140
3.120,-5.710,-1.940
0.140,-0.480,0.040
-0.310,0.120,0.260
0.360,-1.310,-0.030
0.620,-1.090,-0.280
-0.020,-2.730,0.110
1.030,-2.400,-0.630
2.050,-3.270,-2.040
4.380,-16.030,-2.700
-17.240,-30.470,-18.010
-17.240,-30.470,-18.010
-18.450,-27.210,-19.450
-18.450,-27.210,-19.450
-18.450,-27.210,-19.450
-18.450,-27.210,-19.450
-18.690,-23.050,-22.070
-18.690,-23.050,-22.070
-18.690,-23.050,-22.070
-18.690,-23.050,-22.070
-16.680,-14.350,-27.730
-16.680,-14.350,-27.730
-16.680,-14.350,-27.730
-16.680,-14.350,-27.730
-16.680,-14.350,-27.730
-14.800,-10.250,-28.820
-14.800,-10.250,-28.820
-14.800,-10.250,-28.820
-14.800,-10.250,-28.820
-14.800,-10.250,-28.820
-14.800,-10.250,-28.820
-15.580,-4.530,-30.190
-15.580,-4.530,-30.190
-15.580,-4.530,-30.190
-15.580,-4.530,-30.190
-16.300,2.750,-31.260
-16.300,2.750,-31.260
-16.300,2.750,-31.260
-16.300,2.750,-31.260
-20.910,13.610,-13.440
-20.910,13.610,-13.440
-20.910,13.610,-13.440
-20.910,13.610,-13.440
,,,
0.700,-3.130,-1.140
3.120,-5.710,-1.940
0.140,-0.480,0.040
-0.310,0.120,0.260
0.360,-1.310,-0.030
0.620,-1.090,-0.280
-0.020,-2.730,0.110
1.030,-2.400,-0.630
2.050,-3.270,-2.040
4.380,-16.030,-2.700
1.580,-2.400,-1.380
1.370,-2.730,-0.500
1.690,-2.170,-0.310
1.210,-1.130,0.120
0.660,-1.140,0.160
1.190,-0.290,0.090
6.700,-13.850,-4.390
-19.160,-7.830,-37.820
-19.160,-7.830,-37.820
-19.160,-7.830,-37.820
-19.160,-7.830,-37.820
-19.160,-7.830,-37.820
-19.160,-7.830,-37.820
-18.600,3.010,-37.140
-18.600,3.010,-37.140
-18.600,3.010,-37.140
-18.710,17.360,-37.160
-18.710,17.360,-37.160
-18.710,17.360,-37.160
-18.710,17.360,-37.160
-20.100,26.690,-37.410
-20.100,26.690,-37.410
-20.100,26.690,-37.410
-20.100,26.690,-37.410
-24.170,24.610,-12.950
-24.170,24.610,-12.950
-24.170,24.610,-12.950
-24.170,24.610,-12.950
-24.170,24.610,-12.950
-24.170,24.610,-12.950
-32.650,14.080,-11.110
-32.650,14.080,-11.110
-32.650,14.080,-11.110
-32.650,14.080,-11.110
-32.650,14.080,-11.110
-25.020,25.460,-17.130
-25.020,25.460,-17.130
-25.020,25.460,-17.130
-25.020,25.460,-17.130
-21.850,22.330,-12.020
,,,
1.030,-2.400,-0.630
2.050,-3.270,-2.040
4.380,-16.030,-2.700
1.580,-2.400,-1.380
1.370,-2.730,-0.500
1.690,-2.170,-0.310
1.210,-1.130,0.120
0.660,-1.140,0.160
1.190,-0.290,0.090
6.700,-13.850,-4.390
2.450,-2.170,-1.690
1.440,-3.150,-1.350
1.100,-2.960,-0.690
0.830,-1.850,0.170
1.130,-2.010,0.480
2.180,-4.400,-1.950
9.910,-41.310,-7.950
-26.180,20.470,-34.560
-26.180,20.470,-34.560
-30.080,26.000,-16.400
-30.080,26.000,-16.400
-30.080,26.000,-16.400
-30.080,26.000,-16.400
-30.080,26.000,-16.400
-32.630,31.900,-9.910
-32.630,31.900,-9.910
-32.630,31.900,-9.910
-32.630,31.900,-9.910
-32.630,31.900,-9.910
-32.630,31.900,-9.910
-25.980,21.240,-13.620
-25.980,21.240,-13.620
-25.980,21.240,-13.620
-25.980,21.240,-13.620
-23.260,21.690,-7.820
-23.260,21.690,-7.820
-23.260,21.690,-7.820
-23.260,21.690,-7.820
-30.950,11.500,-3.880
-30.950,11.500,-3.880
-30.950,11.500,-3.880
-30.950,11.500,-3.880
-31.460,8.970,-1.130
-31.460,8.970,-1.130
-31.460,8.970,-1.130
-31.460,8.970,-1.130
-31.460,8.970,-1.130
-29.890,8.850,-0.590
-29.890,8.850,-0.590
-29.890,8.850,-0.590
,,,
1.210,-1.130,0.120
0.660,-1.140,0.160
1.190,-0.290,0.090
6.700,-13.850,-4.390
2.450,-2.170,-1.690
1.440,-3.150,-1.350
1.100,-2.960,-0.690
0.830,-1.850,0.170
1.130,-2.010,0.480
2.180,-4.400,-1.950
9.910,-41.310,-7.950
1.530,-3.320,0.660
0.690,-2.020,0.870
0.860,-2.270,0.700
0.520,-1.430,1.070
1.120,-3.500,-0.120
2.130,-19.240,-2.780
-24.890,-15.970,-27.060
-24.890,-15.970,-27.060
-24.890,-15.970,-27.060
-27.350,-7.260,-28.610
-27.350,-7.260,-28.610
-27.350,-7.260,-28.610
-27.350,-7.260,-28.610
-28.020,2.700,-33.210
-28.020,2.700,-33.210
-28.020,2.700,-33.210
-28.560,29.930,-30.780
-28.560,29.930,-30.780
-28.560,29.930,-30.780
-28.560,29.930,-30.780
-28.560,29.930,-30.780
-28.560,29.930,-30.780
-26.120,30.730,-14.210
-26.120,30.730,-14.210
-26.120,30.730,-14.210
-26.120,30.730,-14.210
-26.120,30.730,-14.210
-22.490,30.540,-6.160
-22.490,30.540,-6.160
-22.490,30.540,-6.160
-22.490,30.540,-6.160
-23.800,18.470,-0.810
-23.800,18.470,-0.810
-23.800,18.470,-0.810
-23.800,18.470,-0.810
-32.310,3.950,-3.840
-32.310,3.950,-3.840
-32.310,3.950,-3.840
-32.310,3.950,-3.840
,,,
0.830,-1.850,0.170
1.130,-2.010,0.480
2.180,-4.400,-1.950
9.910,-41.310,-7.950
1.530,-3.320,0.660
0.690,-2.020,0.870
0.860,-2.270,0.700
0.520,-1.430,1.070
1.120,-3.500,-0.120
2.130,-19.240,-2.780
1.110,-2.790,0.510
2.020,-2.180,0.520
0.800,-2.650,0.620
0.270,-2.100,1.130
-0.120,-1.260,1.680
0.600,-4.070,0.460
2.010,-9.550,-2.440
6.210,-31.990,-18.990
6.210,-31.990,-18.990
6.210,-31.990,-18.990
6.210,-31.990,-18.990
6.210,-31.990,-18.990
6.210,-31.990,-18.990
4.360,-32.540,-20.010
4.360,-32.540,-20.010
4.360,-32.540,-20.010
4.360,-32.540,-20.010
0.730,-31.920,-20.940
0.730,-31.920,-20.940
0.730,-31.920,-20.940
0.730,-31.920,-20.940
-3.530,-30.560,-21.460
-3.530,-30.560,-21.460
-3.530,-30.560,-21.460
-11.740,-26.260,-23.010
-11.740,-26.260,-23.010
-11.740,-26.260,-23.010
-11.740,-26.260,-23.010
-11.740,-26.260,-23.010
-11.740,-26.260,-23.010
-14.360,-22.980,-24.300
-14.360,-22.980,-24.300
-14.360,-22.980,-24.300
-14.360,-22.980,-24.300
-14.360,-22.980,-24.300
-16.330,-18.210,-25.820
-16.330,-18.210,-25.820
-16.330,-18.210,-25.820
-16.330,-18.210,-25.820
-19.920,-4.690,-29.270
,,,
0.520,-1.430,1.070
1.120,-3.500,-0.120
2.130,-19.240,-2.780
1.110,-2.790,0.510
2.020,-2.180,0.520
0.800,-2.650,0.620
0.270,-2.100,1.130
-0.120,-1.260,1.680
0.600,-4.070,0.460
2.010,-9.550,-2.440
1.620,-2.130,-0.520
2.000,-3.950,-0.420
1.850,-4.020,-0.090
1.720,-3.090,0.450
1.070,-3.390,0.670
-0.050,-2.730,1.760
4.900,-9.290,0.100
-0.120,-23.460,-4.620
-0.120,-23.460,-4.620
-1.660,-23.980,-4.740
-1.660,-23.980,-4.740
-1.660,-23.980,-4.740
-1.660,-23.980,-4.740
-1.660,-23.980,-4.740
-5.370,-24.800,-6.160
-5.370,-24.800,-6.160
-5.370,-24.800,-6.160
-5.370,-24.800,-6.160
-5.370,-24.800,-6.160
-5.370,-24.800,-6.160
-6.830,-25.520,-6.290
-6.830,-25.520,-6.290
-6.830,-25.520,-6.290
-6.830,-25.520,-6.290
-8.270,-25.870,-6.370
-8.270,-25.870,-6.370
-8.270,-25.870,-6.370
-8.270,-25.870,-6.370
-12.300,-23.910,-7.810
-12.300,-23.910,-7.810
-12.300,-23.910,-7.810
-12.300,-23.910,-7.810
-15.030,-21.940,-8.600
-15.030,-21.940,-8.600
-15.030,-21.940,-8.600
-15.030,-21.940,-8.600
-15.030,-21.940,-8.600
-17.880,-19.000,-9.680
-17.880,-19.000,-9.680
-17.880,-19.000,-9.680
,,,
0.270,-2.100,1.130
-0.120,-1.260,1.680
0.600,-4.070,0.460
2.010,-9.550,-2.440
1.620,-2.130,-0.520
2.000,-3.950,-0.420
1.850,-4.020,-0.090
1.720,-3.090,0.450
1.070,-3.390,0.670
-0.050,-2.730,1.760
4.900,-9.290,0.100
0.860,-0.640,0.790
1.980,-2.070,-0.160
1.530,-3.040,0.460
1.530,-4.600,0.410
1.460,-5.710,-0.220
1.920,-8.500,-0.640
3.310,-22.130,-5.790
3.310,-22.130,-5.790
3.310,-22.130,-5.790
1.990,-26.330,-6.810
1.990,-26.330,-6.810
1.990,-26.330,-6.810
1.260,-27.860,-6.250
1.260,-27.860,-6.250
1.260,-27.860,-6.250
1.260,-27.860,-6.250
0.030,-28.590,-5.470
0.030,-28.590,-5.470
0.030,-28.590,-5.470
0.030,-28.590,-5.470
0.030,-28.590,-5.470
0.030,-28.590,-5.470
-3.670,-29.410,-4.320
-3.670,-29.410,-4.320
-3.670,-29.410,-4.320
-3.670,-29.410,-4.320
-3.670,-29.410,-4.320
-5.910,-28.910,-3.980
-5.910,-28.910,-3.980
-5.910,-28.910,-3.980
-5.910,-28.910,-3.980
-5.910,-28.910,-3.980
-8.430,-27.610,-4.640
-8.430,-27.610,-4.640
-8.430,-27.610,-4.640
-11.800,-20.010,-8.020
-11.800,-20.010,-8.020
-11.800,-20.010,-8.020
-11.800,-20.010,-8.020
,,,
2.000,-3.950,-0.420
1.850,-4.020,-0.090
1.720,-3.090,0.450
1.070,-3.390,0.670
-0.050,-2.730,1.760
4.900,-9.290,0.100
0.860,-0.640,0.790
1.980,-2.070,-0.160
1.530,-3.040,0.460
1.530,-4.600,0.410
1.460,-5.710,-0.220
1.920,-8.500,-0.640
1.720,-2.340,0.810
1.840,-2.110,0.770
2.070,-3.440,-0.070
2.130,-4.870,-0.850
2.470,-5.780,-1.860
0.780,-4.640,-1.380
0.780,-4.640,-1.380
0.750,-4.780,-1.460
0.750,-4.780,-1.460
0.750,-4.780,-1.460
0.750,-4.780,-1.460
0.750,-4.780,-1.460
1.290,-5.200,-1.640
1.290,-5.200,-1.640
1.290,-5.200,-1.640
1.290,-5.200,-1.640
1.510,-5.390,-1.510
1.510,-5.390,-1.510
1.510,-5.390,-1.510
1.510,-5.390,-1.510
1.360,-5.540,-1.270
1.360,-5.540,-1.270
1.360,-5.540,-1.270
1.360,-5.540,-1.270
1.680,-5.830,-1.110
1.680,-5.830,-1.110
1.680,-5.830,-1.110
1.680,-5.830,-1.110
1.680,-5.830,-1.110
2.040,-6.610,-1.260
2.040,-6.610,-1.260
2.040,-6.610,-1.260
2.040,-6.610,-1.260
2.040,-6.610,-1.260
2.040,-6.610,-1.260
2.010,-7.210,-1.400
2.010,-7.210,-1.400
2.010,-7.210,-1.400
,,,
4.900,-9.290,0.100
0.860,-0.640,0.790
1.980,-2.070,-0.160
1.530,-3.040,0.460
1.530,-4.600,0.410
1.460,-5.710,-0.220
1.920,-8.500,-0.640
1.720,-2.340,0.810
1.840,-2.110,0.770
2.070,-3.440,-0.070
2.130,-4.870,-0.850
2.470,-5.780,-1.860
2.320,-4.020,-0.430
2.230,-3.940,0.050
1.920,-3.350,0.670
1.520,-3.020,0.580
3.920,-9.620,-2.970
1.070,-16.430,-6.130
-0.960,-15.410,-6.280
-0.960,-15.410,-6.280
-0.960,-15.410,-6.280
-0.960,-15.410,-6.280
-1.700,-14.350,-6.270
-1.700,-14.350,-6.270
-1.700,-14.350,-6.270
-1.700,-14.350,-6.270
-1.700,-14.350,-6.270
-1.700,-14.350,-6.270
-2.890,-13.110,-5.910
-2.890,-13.110,-5.910
-2.890,-13.110,-5.910
-2.890,-13.110,-5.910
-2.890,-13.110,-5.910
-6.240,-9.490,-4.480
-6.240,-9.490,-4.480
-6.240,-9.490,-4.480
-6.240,-9.490,-4.480
-7.310,-7.610,-3.840
-7.310,-7.610,-3.840
-7.310,-7.610,-3.840
-7.310,-7.610,-3.840
-7.860,-6.560,-3.060
-7.860,-6.560,-3.060
-7.860,-6.560,-3.060
-7.860,-6.560,-3.060
-9.010,-4.510,-1.470
-9.010,-4.510,-1.470
-9.010,-4.510,-1.470
-9.010,-4.510,-1.470
-9.010,-4.510,-1.470
,,,
1.720,-2.340,0.810
1.840,-2.110,0.770
2.070,-3.440,-0.070
2.130,-4.870,-0.850
2.470,-5.780,-1.860
2.320,-4.020,-0.430
2.230,-3.940,0.050
1.920,-3.350,0.670
1.520,-3.020,0.580
3.920,-9.620,-2.970
1.470,-3.530,0.030
1.130,-2.690,0.720
0.630,-2.210,0.930
0.770,-2.310,0.530
0.130,-2.490,-0.070
-0.250,-2.850,-1.650
5.900,-10.860,-13.070
-14.160,2.030,-5.420
-14.340,2.650,-2.350
-14.340,2.650,-2.350
-14.340,2.650,-2.350
-14.340,2.650,-2.350
-14.010,1.710,2.360
-14.010,1.710,2.360
-14.010,1.710,2.360
-14.010,1.710,2.360
-14.030,1.970,3.930
-14.030,1.970,3.930
-14.030,1.970,3.930
-14.030,1.970,3.930
-15.210,3.620,4.920
-15.210,3.620,4.920
-15.210,3.620,4.920
-15.210,3.620,4.920
-15.210,3.620,4.920
-16.310,5.290,4.790
-16.310,5.290,4.790
-16.310,5.290,4.790
-16.310,5.290,4.790
-16.310,5.290,4.790
-16.310,5.290,4.790
-14.830,6.930,8.300
-14.830,6.930,8.300
-14.830,6.930,8.300
-14.830,6.930,8.300
-13.390,7.300,9.970
-13.390,7.300,9.970
-13.390,7.300,9.970
-13.390,7.300,9.970
-12.000,9.260,11.730
,,,
1.520,-3.020,0.580
3.920,-9.620,-2.970
1.470,-3.530,0.030
1.130,-2.690,0.720
0.630,-2.210,0.930
0.770,-2.310,0.530
0.130,-2.490,-0.070
-0.250,-2.850,-1.650
5.900,-10.860,-13.070
2.010,-2.640,-1.420
1.420,-3.000,-0.610
1.180,-2.720,0.300
0.470,-1.580,0.470
0.280,-1.510,0.660
0.560,-1.720,0.070
1.240,-2.580,-1.060
5.520,-8.240,-7.020
0.190,-13.950,-7.400
0.190,-13.950,-7.400
-1.410,-12.220,-6.690
-1.410,-12.220,-6.690
-1.410,-12.220,-6.690
-1.410,-12.220,-6.690
-1.410,-12.220,-6.690
-1.410,-12.220,-6.690
-2.770,-10.560,-6.170
-2.770,-10.560,-6.170
-2.770,-10.560,-6.170
-2.770,-10.560,-6.170
-5.870,-6.570,-4.380
-5.870,-6.570,-4.380
-5.870,-6.570,-4.380
-5.870,-6.570,-4.380
-6.830,-4.000,-2.950
-6.830,-4.000,-2.950
-6.830,-4.000,-2.950
-6.830,-4.000,-2.950
-7.840,-1.940,-1.980
-7.840,-1.940,-1.980
-7.840,-1.940,-1.980
-7.840,-1.940,-1.980
-7.840,-1.940,-1.980
-9.450,-0.050,0.110
-9.450,-0.050,0.110
-9.450,-0.050,0.110
-9.450,-0.050,0.110
-9.450,-0.050,0.110
-9.450,-0.050,0.110
-10.290,0.680,0.960
-10.290,0.680,0.960
,,,
0.630,-2.210,0.930
0.770,-2.310,0.530
0.130,-2.490,-0.070
-0.250,-2.850,-1.650
5.900,-10.860,-13.070
2.010,-2.640,-1.420
1.420,-3.000,-0.610
1.180,-2.720,0.300
0.470,-1.580,0.470
0.280,-1.510,0.660
0.560,-1.720,0.070
1.240,-2.580,-1.060
5.520,-8.240,-7.020
-2.460,0.110,3.590
-1.390,-0.140,2.590
-1.340,0.280,1.180
3.220,-4.870,-2.280
2.940,-4.440,-3.300
2.940,-4.440,-3.300
2.940,-4.440,-3.300
2.850,-4.350,-2.960
2.850,-4.350,-2.960
2.850,-4.350,-2.960
2.850,-4.350,-2.960
2.550,-4.100,-2.740
2.550,-4.100,-2.740
2.550,-4.100,-2.740
2.550,-4.100,-2.740
2.550,-4.100,-2.740
2.550,-4.100,-2.740
2.260,-3.820,-2.530
2.260,-3.820,-2.530
2.260,-3.820,-2.530
2.260,-3.820,-2.530
2.260,-3.820,-2.530
1.850,-3.130,-1.990
1.850,-3.130,-1.990
1.850,-3.130,-1.990
1.850,-3.130,-1.990
1.510,-2.770,-1.780
1.510,-2.770,-1.780
1.510,-2.770,-1.780
1.510,-2.770,-1.780
1.200,-2.510,-1.440
1.200,-2.510,-1.440
1.200,-2.510,-1.440
1.200,-2.510,-1.440
1.100,-2.290,-1.160
1.100,-2.290,-1.160
1.100,-2.290,-1.160
,,,
5.520,-8.240,-7.020
-2.460,0.110,3.590
-1.390,-0.140,2.590
-1.340,0.280,1.180
3.220,-4.870,-2.280
0.090,-0.610,0.020
-0.010,-0.420,0.050
0.200,-0.580,-0.140
0.120,-0.310,-0.070
0.090,-0.290,-0.070
0.000,-0.470,-0.060
0.100,-0.430,-0.010
0.110,-0.470,-0.140
0.120,-0.550,-0.250
0.080,-0.420,-0.120
0.220,-1.040,-0.200
3.930,-3.190,-3.570
1.140,-13.470,-3.620
1.140,-13.470,-3.620
1.140,-13.470,-3.620
1.120,-13.850,-4.210
1.120,-13.850,-4.210
1.120,-13.850,-4.210
1.120,-13.850,-4.210
1.020,-14.670,-5.120
1.020,-14.670,-5.120
1.020,-14.670,-5.120
1.170,-14.890,-5.820
1.170,-14.890,-5.820
1.170,-14.890,-5.820
1.170,-14.890,-5.820
1.170,-14.890,-5.820
1.170,-14.890,-5.820
1.050,-15.280,-6.410
1.050,-15.280,-6.410
1.050,-15.280,-6.410
1.050,-15.280,-6.410
1.050,-15.280,-6.410
-0.220,-15.120,-6.410
-0.220,-15.120,-6.410
-0.220,-15.120,-6.410
-0.220,-15.120,-6.410
-0.220,-15.120,-6.410
-1.380,-13.560,-6.070
-1.380,-13.560,-6.070
-1.380,-13.560,-6.070
-2.870,-11.630,-5.980
-2.870,-11.630,-5.980
-2.870,-11.630,-5.980
-2.870,-11.630,-5.980
,,,
-0.010,-0.420,0.050
0.200,-0.580,-0.140
0.120,-0.310,-0.070
0.090,-0.290,-0.070
0.000,-0.470,-0.060
0.100,-0.430,-0.010
0.110,-0.470,-0.140
0.120,-0.550,-0.250
0.080,-0.420,-0.120
0.220,-1.040,-0.200
3.930,-3.190,-3.570
0.850,-1.840,-2.500
0.230,-0.460,-0.700
0.080,-0.410,-0.070
0.070,-0.490,-0.360
0.510,-1.530,-1.650
5.920,-6.090,-8.740
1.190,-24.500,-11.960
-3.150,-17.680,-11.970
-3.150,-17.680,-11.970
-3.150,-17.680,-11.970
-3.150,-17.680,-11.970
-3.150,-17.680,-11.970
-3.150,-17.680,-11.970
-6.130,-10.510,-11.240
-6.130,-10.510,-11.240
-6.130,-10.510,-11.240
-11.570,-2.550,-6.390
-11.570,-2.550,-6.390
-11.570,-2.550,-6.390
-11.570,-2.550,-6.390
-15.270,1.790,-2.840
-15.270,1.790,-2.840
-15.270,1.790,-2.840
-15.270,1.790,-2.840
-19.880,9.380,-0.740
-19.880,9.380,-0.740
-19.880,9.380,-0.740
-19.880,9.380,-0.740
-19.880,9.380,-0.740
-19.880,9.380,-0.740
-21.750,13.550,-2.680
-21.750,13.550,-2.680
-21.750,13.550,-2.680
-21.750,13.550,-2.680
-21.750,13.550,-2.680
-19.530,10.530,-0.660
-19.530,10.530,-0.660
-19.530,10.530,-0.660
-19.530,10.530,-0.660
,,,
0.120,-0.550,-0.250
0.080,-0.420,-0.120
0.220,-1.040,-0.200
3.930,-3.190,-3.570
0.850,-1.840,-2.500
0.230,-0.460,-0.700
0.080,-0.410,-0.070
0.070,-0.490,-0.360
0.510,-1.530,-1.650
5.920,-6.090,-8.740
0.750,-1.230,-0.210
1.260,-1.080,-0.660
0.730,-0.470,-0.770
0.230,-0.050,-0.390
0.210,-0.370,-0.270
0.730,-0.780,-0.650
5.880,-7.910,-3.580
1.250,-10.630,-4.840
1.250,-10.630,-4.840
0.130,-10.630,-5.670
0.130,-10.630,-5.670
0.130,-10.630,-5.670
0.130,-10.630,-5.670
0.130,-10.630,-5.670
0.130,-10.630,-5.670
0.360,-9.580,-5.750
0.360,-9.580,-5.750
0.360,-9.580,-5.750
0.360,-9.580,-5.750
0.360,-9.580,-5.750
-0.420,-8.260,-4.350
-0.420,-8.260,-4.350
-0.420,-8.260,-4.350
-0.420,-8.260,-4.350
-5.230,-3.660,-1.850
-5.230,-3.660,-1.850
-5.230,-3.660,-1.850
-5.230,-3.660,-1.850
-8.080,-2.350,1.000
-8.080,-2.350,1.000
-8.080,-2.350,1.000
-8.080,-2.350,1.000
-11.030,-1.730,3.890
-11.030,-1.730,3.890
-11.030,-1.730,3.890
-11.030,-1.730,3.890
-11.030,-1.730,3.890
-11.030,-1.730,3.890
-13.880,-2.030,6.190
-13.880,-2.030,6.190
,,,
0.070,-0.490,-0.360
0.510,-1.530,-1.650
5.920,-6.090,-8.740
0.750,-1.230,-0.210
1.260,-1.080,-0.660
0.730,-0.470,-0.770
0.230,-0.050,-0.390
0.210,-0.370,-0.270
0.730,-0.780,-0.650
5.880,-7.910,-3.580
0.580,-1.190,-0.540
0.520,-0.920,-0.480
-0.010,0.000,-0.510
0.110,0.020,0.100
0.200,-0.240,-0.200
1.770,-3.230,-1.160
6.580,-10.370,-3.860
-0.900,-9.990,-4.970
-0.900,-9.990,-4.970
-2.180,-8.690,-5.050
-2.180,-8.690,-5.050
-2.180,-8.690,-5.050
-2.180,-8.690,-5.050
-4.570,-6.120,-4.100
-4.570,-6.120,-4.100
-4.570,-6.120,-4.100
-4.570,-6.120,-4.100
-10.860,-2.450,-2.480
-10.860,-2.450,-2.480
-10.860,-2.450,-2.480
-10.860,-2.450,-2.480
-10.860,-2.450,-2.480
-10.780,-2.590,-2.800
-10.780,-2.590,-2.800
-10.780,-2.590,-2.800
-10.780,-2.590,-2.800
-10.780,-2.590,-2.800
-10.830,-2.360,-1.170
-10.830,-2.360,-1.170
-10.830,-2.360,-1.170
-10.830,-2.360,-1.170
-10.830,-2.360,-1.170
-15.280,1.450,1.620
-15.280,1.450,1.620
-15.280,1.450,1.620
-15.280,1.450,1.620
-17.910,3.900,1.680
-17.910,3.900,1.680
-17.910,3.900,1.680
-21.530,5.580,2.630
,,,
0.210,-0.370,-0.270
0.730,-0.780,-0.650
5.880,-7.910,-3.580
0.580,-1.190,-0.540
0.520,-0.920,-0.480
-0.010,0.000,-0.510
0.110,0.020,0.100
0.200,-0.240,-0.200
1.770,-3.230,-1.160
6.580,-10.370,-3.860
1.240,-1.110,-0.990
0.440,-0.730,-0.520
0.950,-0.850,-0.490
0.360,-0.350,-0.030
0.430,-0.440,-0.270
1.080,-6.070,-1.330
4.050,-13.940,-3.290
-15.160,2.140,1.170
-15.160,2.140,1.170
-15.160,2.140,1.170
-15.160,2.140,1.170
-15.160,2.140,1.170
-15.160,2.140,1.170
-16.370,7.900,1.350
-16.370,7.900,1.350
-16.370,7.900,1.350
-18.620,13.120,1.830
-18.620,13.120,1.830
-18.620,13.120,1.830
-18.620,13.120,1.830
-20.400,15.430,1.700
-20.400,15.430,1.700
-20.400,15.430,1.700
-20.400,15.430,1.700
-18.300,15.830,2.370
-18.300,15.830,2.370
-18.300,15.830,2.370
-18.300,15.830,2.370
-18.300,15.830,2.370
-18.300,15.830,2.370
-17.670,15.500,3.040
-17.670,15.500,3.040
-17.670,15.500,3.040
-17.670,15.500,3.040
-17.670,15.500,3.040
-13.520,14.100,4.070
-13.520,14.100,4.070
-13.520,14.100,4.070
-13.520,14.100,4.070
-12.530,8.920,3.450
,,,
0.110,0.020,0.100
0.200,-0.240,-0.200
1.770,-3.230,-1.160
6.580,-10.370,-3.860
1.240,-1.110,-0.990
0.440,-0.730,-0.520
0.950,-0.850,-0.490
0.360,-0.350,-0.030
0.430,-0.440,-0.270
1.080,-6.070,-1.330
4.050,-13.940,-3.290
1.270,-1.940,-0.440
0.530,-0.130,-0.170
0.550,-0.460,-0.240
1.070,-1.650,-0.370
0.660,-2.290,-0.610
6.560,-18.970,-2.740
-7.530,-7.820,0.010
-7.530,-7.820,0.010
-7.530,-5.960,-2.050
-7.530,-5.960,-2.050
-7.530,-5.960,-2.050
-7.530,-5.960,-2.050
-7.530,-5.960,-2.050
-7.530,-5.960,-2.050
-8.480,-1.200,-6.310
-8.480,-1.200,-6.310
-8.480,-1.200,-6.310
-8.480,-1.200,-6.310
-8.480,-1.200,-6.310
-8.010,1.580,-6.650
-8.010,1.580,-6.650
-8.010,1.580,-6.650
-8.010,1.580,-6.650
-8.010,1.580,-6.650
-6.670,3.100,-5.010
-6.670,3.100,-5.010
-6.670,3.100,-5.010
-9.080,2.680,-3.130
-9.080,2.680,-3.130
-9.080,2.680,-3.130
-9.080,2.680,-3.130
-12.470,3.080,-3.110
-12.470,3.080,-3.110
-12.470,3.080,-3.110
-12.470,3.080,-3.110
-12.470,3.080,-3.110
-12.470,3.080,-3.110
-15.600,4.570,-2.460
-15.600,4.570,-2.460
,,,
0.360,-0.350,-0.030
0.430,-0.440,-0.270
1.080,-6.070,-1.330
4.050,-13.940,-3.290
1.270,-1.940,-0.440
0.530,-0.130,-0.170
0.550,-0.460,-0.240
1.070,-1.650,-0.370
0.660,-2.290,-0.610
6.560,-18.970,-2.740
0.920,-2.720,-1.230
0.430,-1.700,-0.250
0.330,-1.200,0.210
-0.150,-0.360,0.480
0.080,-0.780,0.370
0.820,-3.880,-0.340
3.220,-11.660,-1.480
-1.820,-11.360,-3.060
-1.820,-11.360,-3.060
-1.820,-11.360,-3.060
-1.860,-10.510,-5.170
-1.860,-10.510,-5.170
-1.860,-10.510,-5.170
-1.340,-8.240,-7.600
-1.340,-8.240,-7.600
-1.340,-8.240,-7.600
-1.340,-8.240,-7.600
-4.860,-4.120,-3.940
-4.860,-4.120,-3.940
-4.860,-4.120,-3.940
-4.860,-4.120,-3.940
-4.860,-4.120,-3.940
-4.860,-4.120,-3.940
-9.240,-1.680,0.290
-9.240,-1.680,0.290
-9.240,-1.680,0.290
-9.240,-1.680,0.290
-9.240,-1.680,0.290
-10.740,0.200,-2.390
-10.740,0.200,-2.390
-10.740,0.200,-2.390
-10.740,0.200,-2.390
-10.740,0.200,-2.390
-13.940,-3.020,0.260
-13.940,-3.020,0.260
-13.940,-3.020,0.260
-16.840,-0.430,0.920
-16.840,-0.430,0.920
-16.840,-0.430,0.920
-16.840,-0.430,0.920
,,,
0.660,-2.290,-0.610
6.560,-18.970,-2.740
0.920,-2.720,-1.230
0.430,-1.700,-0.250
0.330,-1.200,0.210
-0.150,-0.360,0.480
0.080,-0.780,0.370
0.820,-3.880,-0.340
3.220,-11.660,-1.480
0.530,-1.810,-1.350
0.590,-1.710,-0.550
-0.130,-1.400,0.180
0.080,-0.970,0.260
0.010,-0.940,0.390
-1.140,-1.110,1.730
0.810,-3.180,-0.410
1.610,-9.130,-1.340
-1.250,-8.820,-1.760
-1.250,-8.820,-1.760
-1.250,-8.820,-1.760
-1.250,-8.820,-1.760
-1.250,-8.820,-1.760
-0.970,-8.880,-2.200
-0.970,-8.880,-2.200
-0.970,-8.880,-2.200
-0.970,-8.880,-2.200
-0.680,-8.830,-2.550
-0.680,-8.830,-2.550
-0.680,-8.830,-2.550
-0.680,-8.830,-2.550
-0.360,-8.670,-2.890
-0.360,-8.670,-2.890
-0.360,-8.670,-2.890
-0.670,-8.150,-2.820
-0.670,-8.150,-2.820
-0.670,-8.150,-2.820
-0.670,-8.150,-2.820
-0.670,-8.150,-2.820
-0.670,-8.150,-2.820
-1.000,-7.600,-3.400
-1.000,-7.600,-3.400
-1.000,-7.600,-3.400
-1.000,-7.600,-3.400
-1.000,-7.600,-3.400
-1.590,-7.140,-4.590
-1.590,-7.140,-4.590
-1.590,-7.140,-4.590
-1.590,-7.140,-4.590
-1.590,-7.140,-4.590
-4.750,-5.850,-4.910
,,,
0.080,-0.780,0.370
0.820,-3.880,-0.340
3.220,-11.660,-1.480
0.530,-1.810,-1.350
0.590,-1.710,-0.550
-0.130,-1.400,0.180
0.080,-0.970,0.260
0.010,-0.940,0.390
-1.140,-1.110,1.730
0.810,-3.180,-0.410
1.610,-9.130,-1.340
1.260,-3.300,-1.150
0.410,-1.660,-0.390
0.080,-1.070,0.490
0.170,-0.840,0.130
1.420,-2.980,-0.910
7.100,-18.070,-9.300
-7.080,-7.120,-5.820
-7.080,-7.120,-5.820
-9.100,-4.970,-2.830
-9.100,-4.970,-2.830
-9.100,-4.970,-2.830
-9.100,-4.970,-2.830
-9.100,-4.970,-2.830
-15.510,-1.520,-0.800
-15.510,-1.520,-0.800
-15.510,-1.520,-0.800
-15.510,-1.520,-0.800
-15.510,-1.520,-0.800
-15.510,-1.520,-0.800
-17.600,-0.440,-0.330
-17.600,-0.440,-0.330
-17.600,-0.440,-0.330
-17.600,-0.440,-0.330
-19.710,0.780,1.130
-19.710,0.780,1.130
-19.710,0.780,1.130
-19.710,0.780,1.130
-22.700,3.340,1.680
-22.700,3.340,1.680
-22.700,3.340,1.680
-22.700,3.340,1.680
-25.820,4.570,1.940
-25.820,4.570,1.940
-25.820,4.570,1.940
-25.820,4.570,1.940
-25.820,4.570,1.940
-25.820,4.570,1.940
-26.350,5.100,4.040
-26.350,5.100,4.040
,,,
0.590,-1.710,-0.550
-0.130,-1.400,0.180
0.080,-0.970,0.260
0.010,-0.940,0.390
-1.140,-1.110,1.730
0.810,-3.180,-0.410
1.610,-9.130,-1.340
1.260,-3.300,-1.150
0.410,-1.660,-0.390
0.080,-1.070,0.490
0.170,-0.840,0.130
1.420,-2.980,-0.910
7.100,-18.070,-9.300
1.170,-2.530,-1.070
0.510,-2.700,-0.340
1.290,-1.690,-1.160
4.440,-12.670,-1.110
-6.300,-18.890,-12.290
-7.880,-11.790,-14.030
-7.880,-11.790,-14.030
-7.880,-11.790,-14.030
-7.880,-11.790,-14.030
-8.350,-8.500,-17.050
-8.350,-8.500,-17.050
-8.350,-8.500,-17.050
-7.760,-4.850,-19.890
-7.760,-4.850,-19.890
-7.760,-4.850,-19.890
-7.760,-4.850,-19.890
-8.590,-1.190,-18.710
-8.590,-1.190,-18.710
-8.590,-1.190,-18.710
-8.590,-1.190,-18.710
-8.590,-1.190,-18.710
-8.590,-1.190,-18.710
-19.610,1.440,2.850
-19.610,1.440,2.850
-19.610,1.440,2.850
-19.610,1.440,2.850
-19.610,1.440,2.850
-26.550,2.580,2.730
-26.550,2.580,2.730
-26.550,2.580,2.730
-26.550,2.580,2.730
-31.040,2.600,-2.130
-31.040,2.600,-2.130
-31.040,2.600,-2.130
-31.040,2.600,-2.130
-31.270,10.960,-3.390
-31.270,10.960,-3.390
,,,
-1.140,-1.110,1.730
0.810,-3.180,-0.410
1.610,-9.130,-1.340
1.260,-3.300,-1.150
0.410,-1.660,-0.390
0.080,-1.070,0.490
0.170,-0.840,0.130
1.420,-2.980,-0.910
7.100,-18.070,-9.300
1.170,-2.530,-1.070
0.510,-2.700,-0.340
1.290,-1.690,-1.160
4.440,-12.670,-1.110
0.650,-2.210,0.150
-1.380,-0.860,1.780
1.070,-0.940,-0.650
8.240,-12.530,-2.560
-7.040,-11.670,-11.210
-7.040,-11.670,-11.210
-7.040,-11.670,-11.210
-7.040,-11.670,-11.210
-7.040,-11.670,-11.210
-6.910,-8.640,-12.020
-6.910,-8.640,-12.020
-6.910,-8.640,-12.020
-6.910,-8.640,-12.020
-6.910,-8.640,-12.020
-6.910,-8.640,-12.020
-7.360,-7.430,-14.880
-7.360,-7.430,-14.880
-7.360,-7.430,-14.880
-7.360,-7.430,-14.880
-8.180,-8.020,-12.660
-8.180,-8.020,-12.660
-8.180,-8.020,-12.660
-8.180,-8.020,-12.660
-9.300,-5.260,-10.430
-9.300,-5.260,-10.430
-9.300,-5.260,-10.430
-9.300,-5.260,-10.430
-15.640,0.070,-7.220
-15.640,0.070,-7.220
-15.640,0.070,-7.220
-15.640,0.070,-7.220
-15.640,0.070,-7.220
-20.710,2.620,-2.130
-20.710,2.620,-2.130
-20.710,2.620,-2.130
-20.710,2.620,-2.130
-20.710,2.620,-2.130
,,,
0.410,-1.660,-0.390
0.080,-1.070,0.490
0.170,-0.840,0.130
1.420,-2.980,-0.910
7.100,-18.070,-9.300
1.170,-2.530,-1.070
0.510,-2.700,-0.340
1.290,-1.690,-1.160
4.440,-12.670,-1.110
0.650,-2.210,0.150
-1.380,-0.860,1.780
1.070,-0.940,-0.650
8.240,-12.530,-2.560
-0.280,-0.530,0.450
0.310,-0.470,0.070
0.040,-0.800,0.230
6.310,-7.450,-2.820
-8.370,-23.610,-21.140
-8.370,-23.610,-21.140
-11.480,-19.150,-20.670
-11.480,-19.150,-20.670
-11.480,-19.150,-20.670
-11.480,-19.150,-20.670
-14.760,-18.330,-18.490
-14.760,-18.330,-18.490
-14.760,-18.330,-18.490
-14.760,-18.330,-18.490
-17.680,-13.420,-18.370
-17.680,-13.420,-18.370
-17.680,-13.420,-18.370
-17.680,-13.420,-18.370
-17.680,-13.420,-18.370
-21.680,-8.180,-16.990
-21.680,-8.180,-16.990
-21.680,-8.180,-16.990
-21.680,-8.180,-16.990
-21.680,-8.180,-16.990
-32.370,-0.650,-5.460
-32.370,-0.650,-5.460
-32.370,-0.650,-5.460
-32.370,-0.650,-5.460
-32.370,-0.650,-5.460
-32.080,-1.660,2.590
-32.080,-1.660,2.590
-32.080,-1.660,2.590
-32.080,-1.660,2.590
-31.440,0.360,8.290
-31.440,0.360,8.290
-31.440,0.360,8.290
-29.980,12.450,4.270
,,,
1.420,-2.980,-0.910
7.100,-18.070,-9.300
1.170,-2.530,-1.070
0.510,-2.700,-0.340
1.290,-1.690,-1.160
4.440,-12.670,-1.110
0.650,-2.210,0.150
-1.380,-0.860,1.780
1.070,-0.940,-0.650
8.240,-12.530,-2.560
-0.280,-0.530,0.450
0.310,-0.470,0.070
0.040,-0.800,0.230
6.310,-7.450,-2.820
0.220,-0.190,-0.030
0.580,-0.900,0.600
5.620,-9.230,-4.410
2.240,-25.770,-12.840
2.240,-25.770,-12.840
2.240,-25.770,-12.840
-0.350,-23.660,-13.480
-0.350,-23.660,-13.480
-0.350,-23.660,-13.480
-0.350,-23.660,-13.480
-0.350,-23.660,-13.480
-0.350,-23.660,-13.480
-2.280,-21.490,-14.070
-2.280,-21.490,-14.070
-2.280,-21.490,-14.070
-2.280,-21.490,-14.070
-5.060,-15.230,-15.810
-5.060,-15.230,-15.810
-5.060,-15.230,-15.810
-5.300,-12.890,-16.440
-5.300,-12.890,-16.440
-5.300,-12.890,-16.440
-5.300,-12.890,-16.440
-5.720,-11.870,-16.030
-5.720,-11.870,-16.030
-5.720,-11.870,-16.030
-5.720,-11.870,-16.030
-5.720,-11.870,-16.030
-5.720,-11.870,-16.030
-6.040,-11.150,-15.020
-6.040,-11.150,-15.020
-6.040,-11.150,-15.020
-6.040,-11.150,-15.020
-6.040,-11.150,-15.020
-6.260,-10.790,-15.880
-6.260,-10.790,-15.880
,,,
1.290,-1.690,-1.160
4.440,-12.670,-1.110
0.650,-2.210,0.150
-1.380,-0.860,1.780
1.070,-0.940,-0.650
8.240,-12.530,-2.560
-0.280,-0.530,0.450
0.310,-0.470,0.070
0.040,-0.800,0.230
6.310,-7.450,-2.820
0.220,-0.190,-0.030
0.580,-0.900,0.600
5.620,-9.230,-4.410
1.180,-1.600,-0.390
0.150,-2.430,-0.120
0.230,-2.870,-0.360
15.330,-15.680,-15.400
-9.670,-3.640,-10.930
-9.670,-3.640,-10.930
-9.670,-3.640,-10.930
-9.670,-3.640,-10.930
-16.800,-0.410,-1.290
-16.800,-0.410,-1.290
-16.800,-0.410,-1.290
-16.800,-0.410,-1.290
-31.120,5.150,4.200
-31.120,5.150,4.200
-31.120,5.150,4.200
-31.120,5.150,4.200
-31.120,5.150,4.200
-29.360,5.060,2.380
-29.360,5.060,2.380
-29.360,5.060,2.380
-29.360,5.060,2.380
-29.360,5.060,2.380
-29.360,5.060,2.380
-25.750,8.420,-0.670
-25.750,8.420,-0.670
-25.750,8.420,-0.670
-25.750,8.420,-0.670
-23.360,10.760,-3.340
-23.360,10.760,-3.340
-23.360,10.760,-3.340
-24.450,8.130,-1.760
-24.450,8.130,-1.760
-24.450,8.130,-1.760
-24.450,8.130,-1.760
-23.390,5.290,-0.120
-23.390,5.290,-0.120
-23.390,5.290,-0.120
,,,
0.650,-2.210,0.150
-1.380,-0.860,1.780
1.070,-0.940,-0.650
8.240,-12.530,-2.560
-0.280,-0.530,0.450
0.310,-0.470,0.070
0.040,-0.800,0.230
6.310,-7.450,-2.820
0.220,-0.190,-0.030
0.580,-0.900,0.600
5.620,-9.230,-4.410
1.180,-1.600,-0.390
0.150,-2.430,-0.120
0.230,-2.870,-0.360
15.330,-15.680,-15.400
0.720,-2.800,-0.200
5.070,-7.870,-3.460
7.660,-15.270,-5.790
7.660,-15.270,-5.790
7.660,-15.270,-5.790
7.090,-17.850,-6.870
7.090,-17.850,-6.870
7.090,-17.850,-6.870
7.090,-17.850,-6.870
7.090,-17.850,-6.870
6.860,-19.120,-7.730
6.860,-19.120,-7.730
6.860,-19.120,-7.730
6.860,-19.120,-7.730
6.400,-19.630,-8.580
6.400,-19.630,-8.580
6.400,-19.630,-8.580
6.400,-19.630,-8.580
2.930,-19.800,-11.210
2.930,-19.800,-11.210
2.930,-19.800,-11.210
2.930,-19.800,-11.210
0.090,-19.320,-12.080
0.090,-19.320,-12.080
0.090,-19.320,-12.080
0.090,-19.320,-12.080
0.090,-19.320,-12.080
-2.890,-17.870,-12.720
-2.890,-17.870,-12.720
-2.890,-17.870,-12.720
-2.890,-17.870,-12.720
-2.890,-17.870,-12.720
-2.890,-17.870,-12.720
-5.190,-15.460,-12.540
-5.190,-15.460,-12.540
,,,
8.240,-12.530,-2.560
-0.280,-0.530,0.450
0.310,-0.470,0.070
0.040,-0.800,0.230
6.310,-7.450,-2.820
0.220,-0.190,-0.030
0.580,-0.900,0.600
5.620,-9.230,-4.410
1.180,-1.600,-0.390
0.150,-2.430,-0.120
0.230,-2.870,-0.360
15.330,-15.680,-15.400
0.720,-2.800,-0.200
5.070,-7.870,-3.460
1.120,-2.440,-0.450
0.830,-1.940,0.210
4.480,-4.890,-2.680
4.600,-23.290,-18.770
4.600,-23.290,-18.770
4.600,-23.290,-18.770
4.600,-23.290,-18.770
0.990,-19.990,-18.100
0.990,-19.990,-18.100
0.990,-19.990,-18.100
0.990,-19.990,-18.100
-1.920,-16.620,-17.550
-1.920,-16.620,-17.550
-1.920,-16.620,-17.550
-1.920,-16.620,-17.550
-1.920,-16.620,-17.550
-6.660,-11.050,-17.510
-6.660,-11.050,-17.510
-6.660,-11.050,-17.510
-6.660,-11.050,-17.510
-6.660,-11.050,-17.510
-6.660,-11.050,-17.510
-7.500,-8.770,-17.370
-7.500,-8.770,-17.370
-7.500,-8.770,-17.370
-7.500,-8.770,-17.370
-8.640,-7.410,-16.210
-8.640,-7.410,-16.210
-8.640,-7.410,-16.210
-8.640,-7.410,-16.210
-18.320,-2.040,-6.820
-18.320,-2.040,-6.820
-18.320,-2.040,-6.820
-18.320,-2.040,-6.820
-27.070,1.430,-2.910
-27.070,1.430,-2.910
,,,
-0.280,-0.530,0.450
0.310,-0.470,0.070
0.040,-0.800,0.230
6.310,-7.450,-2.820
0.220,-0.190,-0.030
0.580,-0.900,0.600
5.620,-9.230,-4.410
1.180,-1.600,-0.390
0.150,-2.430,-0.120
0.230,-2.870,-0.360
15.330,-15.680,-15.400
0.720,-2.800,-0.200
5.070,-7.870,-3.460
1.120,-2.440,-0.450
0.830,-1.940,0.210
4.480,-4.890,-2.680
4.150,-4.590,-2.090
3.220,-12.170,-2.990
3.220,-12.170,-2.990
3.220,-12.170,-2.990
3.220,-12.170,-2.990
2.980,-12.990,-3.320
2.980,-12.990,-3.320
2.980,-12.990,-3.320
2.980,-12.990,-3.320
2.980,-12.990,-3.320
3.090,-13.860,-3.690
3.090,-13.860,-3.690
3.090,-13.860,-3.690
3.090,-13.860,-3.690
2.960,-14.310,-3.540
2.960,-14.310,-3.540
2.960,-14.310,-3.540
2.960,-14.310,-3.540
2.860,-15.210,-3.470
2.860,-15.210,-3.470
2.860,-15.210,-3.470
2.860,-15.210,-3.470
2.730,-16.500,-3.420
2.730,-16.500,-3.420
2.730,-16.500,-3.420
2.730,-16.500,-3.420
2.730,-16.500,-3.420
3.910,-18.510,-4.140
3.910,-18.510,-4.140
3.910,-18.510,-4.140
3.910,-18.510,-4.140
3.910,-18.510,-4.140
3.910,-18.510,-4.140
4.310,-19.430,-4.480
,,,
0.310,-0.470,0.070
0.040,-0.800,0.230
6.310,-7.450,-2.820
0.220,-0.190,-0.030
0.580,-0.900,0.600
5.620,-9.230,-4.410
1.180,-1.600,-0.390
0.150,-2.430,-0.120
0.230,-2.870,-0.360
15.330,-15.680,-15.400
0.720,-2.800,-0.200
5.070,-7.870,-3.460
1.120,-2.440,-0.450
0.830,-1.940,0.210
4.480,-4.890,-2.680
4.150,-4.590,-2.090
2.660,-5.520,-1.800
5.130,-11.840,-3.330
5.130,-11.840,-3.330
5.130,-11.840,-3.330
4.660,-12.310,-3.040
4.660,-12.310,-3.040
4.660,-12.310,-3.040
4.660,-12.310,-3.040
3.640,-12.330,-2.910
3.640,-12.330,-2.910
3.640,-12.330,-2.910
3.640,-12.330,-2.910
3.970,-12.980,-2.830
3.970,-12.980,-2.830
3.970,-12.980,-2.830
3.970,-12.980,-2.830
3.970,-12.980,-2.830
4.310,-13.760,-2.840
4.310,-13.760,-2.840
4.310,-13.760,-2.840
4.310,-13.760,-2.840
4.310,-13.760,-2.840
4.310,-13.760,-2.840
5.170,-16.920,-4.000
5.170,-16.920,-4.000
5.170,-16.920,-4.000
5.170,-16.920,-4.000
5.880,-18.550,-4.690
5.880,-18.550,-4.690
5.880,-18.550,-4.690
5.880,-18.550,-4.690
6.570,-20.300,-5.880
6.570,-20.300,-5.880
6.570,-20.300,-5.880
,,,
6.310,-7.450,-2.820
0.220,-0.190,-0.030
0.580,-0.900,0.600
5.620,-9.230,-4.410
1.180,-1.600,-0.390
0.150,-2.430,-0.120
0.230,-2.870,-0.360
15.330,-15.680,-15.400
0.720,-2.800,-0.200
5.070,-7.870,-3.460
1.120,-2.440,-0.450
0.830,-1.940,0.210
4.480,-4.890,-2.680
4.150,-4.590,-2.090
2.660,-5.520,-1.800
1.990,-1.820,-1.570
7.610,-8.590,-3.620
1.210,-12.960,-14.480
1.210,-12.960,-14.480
1.210,-12.960,-14.480
1.210,-12.960,-14.480
1.210,-12.960,-14.480
-0.420,-9.990,-14.150
-0.420,-9.990,-14.150
-0.420,-9.990,-14.150
-0.420,-9.990,-14.150
-0.420,-9.990,-14.150
-3.480,-7.400,-13.660
-3.480,-7.400,-13.660
-3.480,-7.400,-13.660
-3.480,-7.400,-13.660
-3.480,-7.400,-13.660
-11.500,-0.440,-9.010
-11.500,-0.440,-9.010
-11.500,-0.440,-9.010
-11.500,-0.440,-9.010
-27.310,3.260,10.700
-27.310,3.260,10.700
-27.310,3.260,10.700
-30.270,7.290,3.100
-30.270,7.290,3.100
-30.270,7.290,3.100
-30.270,7.290,3.100
-30.270,7.290,3.100
-30.270,7.290,3.100
-29.830,-0.020,2.530
-29.830,-0.020,2.530
-29.830,-0.020,2.530
-29.830,-0.020,2.530
-29.830,-0.020,2.530
,,,
0.220,-0.190,-0.030
0.580,-0.900,0.600
5.620,-9.230,-4.410
1.180,-1.600,-0.390
0.150,-2.430,-0.120
0.230,-2.870,-0.360
15.330,-15.680,-15.400
0.720,-2.800,-0.200
5.070,-7.870,-3.460
1.120,-2.440,-0.450
0.830,-1.940,0.210
4.480,-4.890,-2.680
4.150,-4.590,-2.090
2.660,-5.520,-1.800
1.990,-1.820,-1.570
7.610,-8.590,-3.620
3.420,-4.310,-2.850
13.520,-16.200,-10.220
12.950,-16.170,-12.500
12.950,-16.170,-12.500
12.950,-16.170,-12.500
12.950,-16.170,-12.500
12.570,-15.460,-14.610
12.570,-15.460,-14.610
12.570,-15.460,-14.610
11.500,-14.620,-15.920
11.500,-14.620,-15.920
11.500,-14.620,-15.920
11.500,-14.620,-15.920
4.920,-13.630,-17.730
4.920,-13.630,-17.730
4.920,-13.630,-17.730
4.920,-13.630,-17.730
4.920,-13.630,-17.730
4.920,-13.630,-17.730
0.890,-11.350,-16.190
0.890,-11.350,-16.190
0.890,-11.350,-16.190
0.890,-11.350,-16.190
0.890,-11.350,-16.190
-2.550,-7.280,-14.540
-2.550,-7.280,-14.540
-2.550,-7.280,-14.540
-2.550,-7.280,-14.540
-6.290,-2.650,-14.690
-6.290,-2.650,-14.690
-6.290,-2.650,-14.690
-6.290,-2.650,-14.690
-9.190,-1.800,-14.010
-9.190,-1.800,-14.010
,,,
0.580,-0.900,0.600
5.620,-9.230,-4.410
1.180,-1.600,-0.390
0.150,-2.430,-0.120
0.230,-2.870,-0.360
15.330,-15.680,-15.400
0.720,-2.800,-0.200
5.070,-7.870,-3.460
1.120,-2.440,-0.450
0.830,-1.940,0.210
4.480,-4.890,-2.680
4.150,-4.590,-2.090
2.660,-5.520,-1.800
1.990,-1.820,-1.570
7.610,-8.590,-3.620
3.420,-4.310,-2.850
4.250,-5.120,-2.160
9.740,-13.600,-9.430
9.740,-13.600,-9.430
9.740,-13.600,-9.430
10.180,-14.690,-11.840
10.180,-14.690,-11.840
10.180,-14.690,-11.840
10.180,-14.690,-11.840
10.180,-14.690,-11.840
9.970,-14.900,-13.290
9.970,-14.900,-13.290
9.970,-14.900,-13.290
9.970,-14.900,-13.290
9.970,-14.900,-13.290
9.970,-14.900,-13.290
8.400,-14.750,-14.080
8.400,-14.750,-14.080
8.400,-14.750,-14.080
8.400,-14.750,-14.080
6.320,-13.810,-14.070
6.320,-13.810,-14.070
6.320,-13.810,-14.070
6.320,-13.810,-14.070
3.200,-11.330,-13.540
3.200,-11.330,-13.540
3.200,-11.330,-13.540
2.320,-9.370,-13.100
2.320,-9.370,-13.100
2.320,-9.370,-13.100
2.320,-9.370,-13.100
2.320,-9.370,-13.100
2.320,-9.370,-13.100
0.740,-6.900,-12.570
0.740,-6.900,-12.570
,,,
5.620,-9.230,-4.410
1.180,-1.600,-0.390
0.150,-2.430,-0.120
0.230,-2.870,-0.360
15.330,-15.680,-15.400
0.720,-2.800,-0.200
5.070,-7.870,-3.460
1.120,-2.440,-0.450
0.830,-1.940,0.210
4.480,-4.890,-2.680
4.150,-4.590,-2.090
2.660,-5.520,-1.800
1.990,-1.820,-1.570
7.610,-8.590,-3.620
3.420,-4.310,-2.850
4.250,-5.120,-2.160
5.170,-4.930,-2.870
22.450,-20.770,-13.700
22.450,-20.770,-13.700
22.450,-20.770,-13.700
22.450,-20.770,-13.700
21.980,-21.890,-15.050
21.980,-21.890,-15.050
21.980,-21.890,-15.050
21.980,-21.890,-15.050
16.570,-19.820,-16.070
16.570,-19.820,-16.070
16.570,-19.820,-16.070
16.570,-19.820,-16.070
12.230,-17.540,-14.550
12.230,-17.540,-14.550
12.230,-17.540,-14.550
12.230,-17.540,-14.550
7.700,-14.670,-12.880
7.700,-14.670,-12.880
7.700,-14.670,-12.880
7.700,-14.670,-12.880
7.700,-14.670,-12.880
-1.610,-8.570,-10.830
-1.610,-8.570,-10.830
-1.610,-8.570,-10.830
-1.610,-8.570,-10.830
-1.610,-8.570,-10.830
-1.610,-8.570,-10.830
-4.810,-5.650,-9.900
-4.810,-5.650,-9.900
-4.810,-5.650,-9.900
-4.810,-5.650,-9.900
-9.230,-1.560,-9.570
-9.230,-1.560,-9.570
,,,
0.150,-2.430,-0.120
0.230,-2.870,-0.360
15.330,-15.680,-15.400
0.720,-2.800,-0.200
5.070,-7.870,-3.460
1.120,-2.440,-0.450
0.830,-1.940,0.210
4.480,-4.890,-2.680
4.150,-4.590,-2.090
2.660,-5.520,-1.800
1.990,-1.820,-1.570
7.610,-8.590,-3.620
3.420,-4.310,-2.850
4.250,-5.120,-2.160
5.170,-4.930,-2.870
2.430,-2.650,-0.610
7.260,-5.880,-3.410
3.750,-10.150,-13.570
-4.310,-8.290,-6.850
-4.310,-8.290,-6.850
-4.310,-8.290,-6.850
-4.310,-8.290,-6.850
-10.950,-5.940,-2.660
-10.950,-5.940,-2.660
-10.950,-5.940,-2.660
-10.950,-5.940,-2.660
-10.950,-5.940,-2.660
-18.310,-4.180,0.960
-18.310,-4.180,0.960
-18.310,-4.180,0.960
-18.310,-4.180,0.960
-18.310,-4.180,0.960
-18.310,-4.180,0.960
-27.360,-7.870,4.390
-27.360,-7.870,4.390
-27.360,-7.870,4.390
-27.360,-7.870,4.390
-25.140,-6.240,4.520
-25.140,-6.240,4.520
-25.140,-6.240,4.520
-25.140,-6.240,4.520
-23.030,-3.780,4.930
-23.030,-3.780,4.930
-23.030,-3.780,4.930
-23.030,-3.780,4.930
-28.290,-0.470,6.190
-28.290,-0.470,6.190
-28.290,-0.470,6.190
-28.290,-0.470,6.190
-28.290,-0.470,6.190
,,,
0.230,-2.870,-0.360
15.330,-15.680,-15.400
0.720,-2.800,-0.200
5.070,-7.870,-3.460
1.120,-2.440,-0.450
0.830,-1.940,0.210
4.480,-4.890,-2.680
4.150,-4.590,-2.090
2.660,-5.520,-1.800
1.990,-1.820,-1.570
7.610,-8.590,-3.620
3.420,-4.310,-2.850
4.250,-5.120,-2.160
5.170,-4.930,-2.870
2.430,-2.650,-0.610
7.260,-5.880,-3.410
4.770,-5.910,-2.290
6.730,-16.950,-10.130
4.410,-14.510,-8.820
4.410,-14.510,-8.820
4.410,-14.510,-8.820
4.410,-14.510,-8.820
4.410,-14.510,-8.820
2.480,-12.220,-7.800
2.480,-12.220,-7.800
2.480,-12.220,-7.800
2.480,-12.220,-7.800
0.670,-10.910,-6.380
0.670,-10.910,-6.380
0.670,-10.910,-6.380
0.670,-10.910,-6.380
-4.600,-8.990,-4.980
-4.600,-8.990,-4.980
-4.600,-8.990,-4.980
-4.600,-8.990,-4.980
-6.160,-8.090,-4.180
-6.160,-8.090,-4.180
-6.160,-8.090,-4.180
-6.160,-8.090,-4.180
-6.160,-8.090,-4.180
-6.160,-8.090,-4.180
-9.750,-5.730,-1.800
-9.750,-5.730,-1.800
-9.750,-5.730,-1.800
-9.750,-5.730,-1.800
-9.750,-5.730,-1.800
-23.310,3.870,4.230
-23.310,3.870,4.230
-23.310,3.870,4.230
-23.310,3.870,4.230
,,,
15.330,-15.680,-15.400
0.720,-2.800,-0.200
5.070,-7.870,-3.460
1.120,-2.440,-0.450
0.830,-1.940,0.210
4.480,-4.890,-2.680
4.150,-4.590,-2.090
2.660,-5.520,-1.800
1.990,-1.820,-1.570
7.610,-8.590,-3.620
3.420,-4.310,-2.850
4.250,-5.120,-2.160
5.170,-4.930,-2.870
2.430,-2.650,-0.610
7.260,-5.880,-3.410
4.770,-5.910,-2.290
5.020,-9.220,-3.590
-4.100,-15.020,-9.320
-4.100,-15.020,-9.320
-4.100,-15.020,-9.320
-4.100,-15.020,-9.320
-3.860,-13.010,-9.930
-3.860,-13.010,-9.930
-3.860,-13.010,-9.930
-3.860,-13.010,-9.930
-3.470,-9.070,-8.710
-3.470,-9.070,-8.710
-3.470,-9.070,-8.710
-3.470,-9.070,-8.710
-3.470,-9.070,-8.710
-3.070,-6.770,-7.760
-3.070,-6.770,-7.760
-3.070,-6.770,-7.760
-3.070,-6.770,-7.760
-3.070,-6.770,-7.760
-4.620,-4.970,-6.500
-4.620,-4.970,-6.500
-4.620,-4.970,-6.500
-4.620,-4.970,-6.500
-4.620,-4.970,-6.500
-14.220,-1.420,2.090
-14.220,-1.420,2.090
-14.220,-1.420,2.090
-26.470,5.630,10.870
-26.470,5.630,10.870
